"time","seconds_elapsed","rotationRateX","rotationRateY","rotationRateZ","gravityX","gravityY","gravityZ","accelerationX","accelerationY","accelerationZ","quaternionW","quaternionX","quaternionY","quaternionZ","label"
"1.71E+18","0.087345947","-0.135304943","0.016117003","-0.020628158","-0.499097675","-0.164054081","-0.850874722","0.001737356","0.017768055","0.002089381","0.961996512","0.085267504","-0.259407212","-1.62E-18","N"
"1.71E+18","0.097366211","-0.116097696","0.017973971","-0.023537926","-0.49891144","-0.163080707","-0.851170957","0.002680302","0.015772343","-0.004373968","0.962073482","0.084682616","-0.259313251","-0.000267827","N"
"1.71E+18","0.107385986","-0.090525486","0.016638394","-0.018200688","-0.498721302","-0.162288696","-0.851433754","0.000964284","0.010875717","-0.007040918","0.962141638","0.084203625","-0.259215892","-0.000495855","N"
"1.71E+18","0.117405762","-0.087151267","0.018086251","-0.02208038","-0.4985241","-0.161620617","-0.851676285","0.003284782","0.007445797","-0.006874681","0.962204593","0.083796308","-0.259113943","-0.000698978","N"
"1.71E+18","0.127428223","-0.089894056","0.009627518","-0.013236821","-0.498380154","-0.160972387","-0.851883292","0.008069426","0.00342536","-0.011046946","0.962258754","0.083642981","-0.258963697","2.03E-17","N"
"1.71E+18","0.137448242","-0.095180161","0.009533348","-0.006595429","-0.498288125","-0.160218477","-0.852079213","0.010983378","-0.00381352","-0.009828687","0.962309593","0.083202965","-0.2589163","-0.000163085","N"
"1.71E+18","0.147468262","-0.10008011","0.013518769","-0.001049929","-0.498187006","-0.159508109","-0.852271616","0.011416286","-0.006126076","-0.008018851","0.962359523","0.082789479","-0.258863073","-0.000312166","N"
"1.71E+18","0.157488281","-0.108556151","0.007086969","0.001659304","-0.498242825","-0.158516914","-0.852423906","0.013608336","-0.006949395","-0.014671981","0.962399016","0.082244457","-0.258889739","-0.000411258","N"
"1.71E+18","0.167508301","-0.112918675","0.009617238","0.003852418","-0.49820134","-0.157314122","-0.852670908","0.022462755","-0.008106411","-0.017888725","0.962463076","0.081586041","-0.258859542","-0.000515763","N"
"1.71E+18","0.177528564","-0.105510026","0.010337037","0.004554693","-0.498087078","-0.156137049","-0.85295403","0.025857985","-0.010504201","-0.016034007","0.962536662","0.080943365","-0.25878788","-0.00060888","N"
"1.71E+18","0.18754834","-0.08907859","0.012053978","0.008797907","-0.497954905","-0.155170426","-0.853207529","0.026992321","-0.011241943","-0.014864922","0.962602439","0.080415107","-0.258707642","-0.000685852","N"
"1.71E+18","0.197568359","-0.072803482","0.014819298","0.006936625","-0.497760087","-0.154420346","-0.853457272","0.028125018","-0.010664508","-0.01698029","0.962667307","0.080001108","-0.258594628","-0.00075686","N"
"1.71E+18","0.207588379","-0.065764211","0.013841119","0.00711186","-0.497446477","-0.153842971","-0.853744328","0.031717658","-0.00939557","-0.021118283","0.962741724","0.079679177","-0.258416451","-0.000816566","N"
"1.71E+18","0.217608398","-0.072483636","0.008600284","0.006570706","-0.497117639","-0.153431043","-0.854009986","0.037095606","-0.010250002","-0.021569848","0.962810663","0.079435643","-0.258234383","-0.0009063","N"
"1.71E+18","0.227628418","-0.098779157","0.005570406","0.00734249","-0.4968445","-0.152913705","-0.854261696","0.0407134","-0.014276862","-0.027223289","0.962875895","0.0791319","-0.258083918","-0.001017717","N"
"1.71E+18","0.237648438","-0.114163175","-0.003123111","0.011286099","-0.496532381","-0.152172312","-0.854575455","0.03889069","-0.012515813","-0.028496385","0.962957208","0.078703718","-0.25791082","-0.001154832","N"
"1.71E+18","0.247668213","-0.116982132","0.003514018","0.013120218","-0.496103734","-0.151375785","-0.854965746","0.035318732","-0.002737999","-0.024917006","0.963058256","0.078246114","-0.257671619","-0.001289731","N"
"1.71E+18","0.257688232","-0.128318146","0.005661964","0.004510218","-0.495604873","-0.150573924","-0.855396628","0.032515794","0.00552386","-0.023067117","0.963169937","0.077775434","-0.257395962","-0.001460804","N"
"1.71E+18","0.267708252","-0.142926648","0.008000219","0.009275412","-0.495087504","-0.14968136","-0.855852723","0.028641552","0.010200769","-0.019955933","0.963287907","0.077250253","-0.257110964","-0.001658616","N"
"1.71E+18","0.277728271","-0.137242138","0.012006146","0.000903499","-0.494517386","-0.148719445","-0.856349885","0.032282799","0.014197946","-0.017230988","0.963416651","0.076683208","-0.256797077","-0.00187636","N"
"1.71E+18","0.287748291","-0.132462561","0.00492054","0.006418107","-0.493896991","-0.147800282","-0.856866896","0.032028615","0.012912571","-0.020757556","0.963550393","0.076142365","-0.256454444","-0.002078866","N"
"1.71E+18","0.297768311","-0.114974372","0.006092597","0.002033479","-0.493227214","-0.14701052","-0.857388377","0.029878765","0.01155825","-0.021227896","0.963685128","0.075670365","-0.256085548","-0.002276026","N"
"1.71E+18","0.30778833","-0.093504235","-0.002628775","0.008296967","-0.492532551","-0.146423161","-0.857888103","0.031274557","0.008376896","-0.019187033","0.963814326","0.075308764","-0.255704024","-0.00245564","N"
"1.71E+18","0.31780835","-0.082509108","-0.009376853","0.021231674","-0.491935462","-0.145919144","-0.858316481","0.030891031","0.000609681","-0.019353807","0.963925239","0.07501166","-0.255372305","-0.002560718","N"
"1.71E+18","0.327828369","-0.098422028","-0.009268462","0.01644757","-0.491468072","-0.145195976","-0.858706772","0.02993542","-0.005347252","-0.018627822","0.964026229","0.074613238","-0.255106825","-0.002621912","N"
"1.71E+18","0.337848389","-0.121913768","-0.009255201","0.011135098","-0.491076827","-0.144182697","-0.859101236","0.026599199","-0.013532162","-0.019225121","0.964128327","0.074055133","-0.254882738","-0.002717711","N"
"1.71E+18","0.347868408","-0.163434312","-0.011823021","-0.004013229","-0.490739167","-0.142847434","-0.859517097","0.023896456","-0.032506585","-0.017588556","0.964235581","0.073309953","-0.254690187","-0.002888433","N"
"1.71E+18","0.357888428","-0.241443366","0.009643656","-0.058793653","-0.490279794","-0.141164988","-0.860057116","0.019713908","-0.048120305","-0.009144545","0.9643744","0.07232767","-0.254440881","-0.003268116","N"
"1.71E+18","0.367908447","-0.312069327","0.048251502","-0.145554125","-0.489408284","-0.139176458","-0.860877156","0.007932365","-0.050398752","-0.002251506","0.964583532","0.071050806","-0.253994509","-0.004148864","N"
"1.71E+18","0.377928223","-0.362011313","0.03981008","-0.167025059","-0.488367468","-0.137028337","-0.861812353","-0.007726341","-0.062053099","0.005382299","0.964820232","0.069615148","-0.253471033","-0.005318412","N"
"1.71E+18","0.387948242","-0.578188121","0.009729942","-0.28809607","-0.487543523","-0.134196267","-0.862724006","0.008463264","-0.076420814","0.008536994","0.965045971","0.067705311","-0.25308891","-0.006951689","N"
"1.71E+18","0.397968262","-0.836579978","0.014166823","-0.374828845","-0.486780465","-0.129722938","-0.863838375","0.008020639","-0.084922463","0.031852961","0.965312775","0.064701497","-0.252773671","-0.009511625","N"
"1.71E+18","0.407988281","-0.964075327","0.035955474","-0.414257199","-0.485972822","-0.123965383","-0.865137577","-0.015919328","-0.122265704","0.051493227","0.965613702","0.060892947","-0.252434665","-0.012611683","N"
"1.71E+18","0.418008301","-0.997074306","0.029469667","-0.401854336","-0.485119969","-0.117389008","-0.866532445","-0.024935633","-0.127087325","0.04376334","0.965929155","0.056663148","-0.252037841","-0.015719533","N"
"1.71E+18","0.428027344","-1.217715621","0.033175189","-0.565655231","-0.484412462","-0.110148758","-0.867877781","-0.012505323","-0.114735283","0.04568851","0.966208587","0.051922261","-0.251724433","-0.019492124","D"
"1.71E+18","0.438047363","-1.467134118","0.023302689","-0.644416928","-0.483464628","-0.101430558","-0.869467556","-0.04918927","-0.1549934","0.079459071","0.966516393","0.04621162","-0.251258256","-0.024082759","D"
"1.71E+18","0.448067383","-1.782814145","0.009588209","-0.73355639","-0.482699454","-0.090618022","-0.871085346","-0.080410957","-0.212421536","0.100043535","0.966786578","0.039227561","-0.250835661","-0.029438925","D"
"1.71E+18","0.458087402","-2.049195528","0.056802966","-0.914291799","-0.48182267","-0.077765569","-0.872811258","-0.080875784","-0.227440745","0.13576597","0.967016728","0.030933306","-0.250274857","-0.035839631","D"
"1.71E+18","0.468107422","-2.298550606","-0.049607895","-0.96052587","-0.481383175","-0.063234009","-0.874226391","-0.103944063","-0.24043116","0.155659497","0.967085229","0.021552448","-0.24984456","-0.043122615","D"
"1.71E+18","0.478127441","-2.440206528","-0.010823907","-1.012465835","-0.48093766","-0.047197137","-0.875483572","-0.126713187","-0.258146495","0.164805472","0.967032115","0.01128315","-0.249260738","-0.050900116","D"
"1.71E+18","0.488147217","-2.620457649","-0.092066839","-1.205537319","-0.480917424","-0.030235408","-0.876244426","-0.152764916","-0.25417316","0.188759744","0.96674568","0.000360374","-0.248752192","-0.059373603","D"
"1.71E+18","0.498167236","-2.624287844","-0.010668593","-1.356707096","-0.481019735","-0.013247442","-0.876609683","-0.111036599","-0.176693961","0.218147218","0.96620217","-0.01086091","-0.248147518","-0.06898137","D"
"1.71E+18","0.508187256","-2.41511178","-0.06917771","-1.338164568","-0.481281936","0.002294977","-0.876562893","-0.159877211","-0.176931828","0.16692239","0.965458926","-0.021327446","-0.247515047","-0.07855395","D"
"1.71E+18","0.518207275","-2.459395885","-0.070761919","-1.52775228","-0.48214817","0.016763898","-0.875929296","-0.147322744","-0.172037333","0.185560703","0.964437713","-0.031353879","-0.24708758","-0.088458169","D"
"1.71E+18","0.528227295","-2.480680227","0.008599218","-1.683298826","-0.482768744","0.030743042","-0.87520808","-0.160587639","-0.117107794","0.227274179","0.963192306","-0.041361139","-0.246343671","-0.099321445","D"
"1.71E+18","0.538247314","-2.488602161","-0.019069802","-1.687427759","-0.483467489","0.044199504","-0.874245763","-0.218970925","-0.175623447","0.245003819","0.961727362","-0.051176016","-0.245475332","-0.110469847","D"
"1.71E+18","0.548267334","-2.70155859","-0.029977307","-1.822134376","-0.484605104","0.058440872","-0.872778654","-0.208617002","-0.211959556","0.246451199","0.959939691","-0.061546853","-0.2445867","-0.122086899","D"
"1.71E+18","0.558287354","-2.768099308","-0.025210306","-1.914777279","-0.486065447","0.073332511","-0.870840251","-0.199771434","-0.157057494","0.24736619","0.957784086","-0.072467941","-0.243573932","-0.134424832","D"
"1.71E+18","0.568307373","-2.747283697","-0.066099942","-2.003982306","-0.488034785","0.087806158","-0.868396342","-0.202913761","-0.117637075","0.246753275","0.95527251","-0.083329507","-0.242606747","-0.147148869","D"
"1.71E+18","0.578327393","-2.741004705","-0.099067591","-2.106720448","-0.490687877","0.101616636","-0.865389824","-0.204517901","-0.079964414","0.224520683","0.952369322","-0.094039915","-0.241788312","-0.160274133","D"
"1.71E+18","0.588347168","-2.834550142","-0.106279425","-2.225977659","-0.494059414","0.114983752","-0.861791193","-0.213597536","-0.053353488","0.239400506","0.949019941","-0.10477068","-0.241096453","-0.173945272","D"
"1.71E+18","0.598367432","-2.969982624","-0.162352815","-2.30181098","-0.4979105","0.128730595","-0.857620895","-0.223372549","-0.071098134","0.274628401","0.945210594","-0.115923685","-0.240314905","-0.188115664","D"
"1.71E+18","0.608387451","-3.103745222","-0.208503529","-2.319088459","-0.502728045","0.143118709","-0.852514863","-0.226336956","-0.101950482","0.289114594","0.94085926","-0.127664635","-0.239675438","-0.202586882","D"
"1.71E+18","0.618407471","-3.319824696","-0.228400871","-2.347941637","-0.508079946","0.158690214","-0.846564949","-0.232307136","-0.102476835","0.297767401","0.936009791","-0.140196374","-0.238877567","-0.217182678","D"
"1.71E+18","0.628427246","-3.602927208","-0.301817805","-2.426542282","-0.514340162","0.175623372","-0.839410961","-0.24898088","-0.060327962","0.302164257","0.930450683","-0.153796208","-0.23799423","-0.232308562","D"
"1.71E+18","0.638447266","-3.816978693","-0.321965307","-2.451495171","-0.521474838","0.194081381","-0.830901027","-0.201501906","0.006815821","0.308501184","0.92413856","-0.168547635","-0.2369413","-0.247827958","D"
"1.71E+18","0.648467285","-3.870815754","-0.392514318","-2.472025394","-0.529435098","0.21298787","-0.821178854","-0.170149922","0.067468703","0.330013752","0.917164225","-0.183846827","-0.235819655","-0.263437757","D"
"1.71E+18","0.658487061","-3.822036266","-0.473950416","-2.433002949","-0.538533032","0.2313198","-0.810230374","-0.188075244","0.109393701","0.343021631","0.909604424","-0.199177907","-0.234974386","-0.278809986","D"
"1.71E+18","0.668507324","-3.787009716","-0.520103514","-2.400062323","-0.548361719","0.248766169","-0.79838264","-0.221902013","0.13021636","0.348996103","0.901629136","-0.214273324","-0.234298166","-0.293694079","D"
"1.71E+18","0.678527344","-3.902285576","-0.501401365","-2.428107262","-0.558634818","0.26583153","-0.785659492","-0.243016243","0.175666243","0.364211798","0.893133536","-0.229458507","-0.23349317","-0.308451515","D"
"1.71E+18","0.688547119","-3.984459639","-0.515794933","-2.45493412","-0.569327593","0.282863826","-0.771915913","-0.219780684","0.267627478","0.403126299","0.883962391","-0.245014284","-0.232400626","-0.323370489","D"
"1.71E+18","0.698567383","-3.825017929","-0.555009842","-2.348313093","-0.580439448","0.298979878","-0.757430553","-0.191960514","0.31910792","0.386962473","0.874396699","-0.260340954","-0.231316445","-0.337854626","D"
"1.71E+18","5.267681641","-6.13645649","-2.25646472","-4.721610546","0.375267327","0.431122661","-0.820553303","-0.157890558","0.480773121","0.361568928","0.494640109","0.051034214","0.295159048","-0.815847931","D"
"1.71E+18","5.277701416","-6.207329273","-2.355725288","-4.616811752","0.334780991","0.497927159","-0.799993992","-0.122164965","0.388608545","0.257345676","0.480134379","0.019360806","0.315639312","-0.818210382","D"
"1.71E+18","5.28772168","-6.247843266","-2.506766081","-4.499957561","0.291419625","0.56143111","-0.774512649","-0.060004771","0.327774882","0.225882888","0.465492293","-0.012793678","0.33552944","-0.818885496","D"
"1.71E+18","5.297741699","-6.347463608","-2.674866915","-4.369483948","0.245389089","0.621226192","-0.744219244","0.018282831","0.283497989","0.222292423","0.450877472","-0.045530006","0.354707468","-0.817813751","D"
"1.71E+18","5.307761475","-6.407478809","-2.829460621","-4.257959366","0.197291389","0.677327633","-0.708733678","0.068974495","0.219126225","0.161935031","0.436269181","-0.078846424","0.373385055","-0.814884119","D"
"1.71E+18","5.317781738","-6.144695282","-3.038825035","-4.237974644","0.147171363","0.7281214","-0.669462323","0.080062553","0.137280822","0.150739908","0.421600777","-0.112423897","0.390678512","-0.810545505","D"
"1.71E+18","5.327801758","-6.02342844","-3.229879379","-4.161774635","0.095146783","0.772618473","-0.627700508","0.097785376","0.119593561","0.15336585","0.406933062","-0.146093931","0.405963451","-0.805143371","D"
"1.71E+18","5.337821533","-6.162104607","-3.370673418","-4.133220196","0.042211231","0.812400877","-0.581569552","0.101816498","0.194694579","0.183513582","0.392145821","-0.180130954","0.420437937","-0.79812692","D"
"1.71E+18","5.347841553","-6.276652813","-3.449493647","-4.138859749","-0.011207602","0.847783208","-0.530224741","0.092140228","0.202357292","0.285778999","0.376875776","-0.214579985","0.434560778","-0.789352427","D"
"1.71E+18","5.357861816","-6.257884026","-3.469698429","-4.203674793","-0.064686142","0.877784967","-0.474667788","0.089527451","0.128257632","0.320355713","0.360880172","-0.248989176","0.447962601","-0.779165965","D"
"1.71E+18","5.367881592","-6.385425568","-3.486152411","-4.353641987","-0.118421249","0.901927173","-0.415335864","0.099454582","0.1205796","0.379294664","0.343835499","-0.283348177","0.460484389","-0.767753328","D"
"1.71E+18","5.377901611","-6.275688171","-3.367905378","-4.512681961","-0.172013775","0.920164704","-0.351722211","0.108003139","0.214051843","0.466178447","0.32529364","-0.317518117","0.472568661","-0.755013513","D"
"1.71E+18","5.387921875","-5.476371288","-3.400517941","-4.714076519","-0.225810215","0.929804146","-0.290644467","0.093562275","0.189092457","0.51565063","0.306237236","-0.350553821","0.481445517","-0.742658151","D"
"1.71E+18","5.397941895","-5.246124268","-3.253558636","-4.745824337","-0.278709769","0.931845605","-0.232346103","0.033775717","0.216500401","0.493546128","0.287075369","-0.382305163","0.487513805","-0.730589391","D"
"1.71E+18","5.407961426","-5.266305923","-3.074852467","-4.844102383","-0.329807073","0.92787087","-0.17402035","-0.051647395","0.453263223","0.56325686","0.267018856","-0.412772583","0.492553163","-0.718130359","D"
"1.71E+18","5.417981689","-5.831040859","-2.961245537","-4.946601391","-0.379444629","0.918399811","-0.112088166","-0.162990063","0.254940093","0.678067267","0.245201125","-0.442773941","0.497902757","-0.704216306","D"
"1.71E+18","5.428001709","-6.090406418","-2.745211363","-5.130521297","-0.42763117","0.902793288","-0.045783155","-0.261669397","0.051262617","0.757758379","0.221090868","-0.472389097","0.503941429","-0.688484208","D"
"1.71E+18","5.438021484","-5.122986317","-2.732400417","-5.314806938","-0.474834502","0.879910409","0.017038843","-0.371448517","0.121661365","0.718663692","0.196321005","-0.5008456","0.507615116","-0.673007325","D"
"1.71E+18","5.448041504","-4.006471634","-2.829252481","-5.295572758","-0.519546628","0.851527452","0.070518337","-0.408981323","0.299183786","0.780525446","0.173979503","-0.527826049","0.50661507","-0.65914507","D"
"1.71E+18","5.458061768","-2.959000826","-2.825499296","-5.275908947","-0.561172545","0.819683492","0.114911504","-0.403213501","0.735400796","0.851183534","0.154485588","-0.553320878","0.501290096","-0.647053757","D"
"1.71E+18","5.468081543","-1.996702433","-2.984098196","-5.363618851","-0.600095987","0.785430491","0.151605234","-0.464647174","0.927216172","0.841436863","0.13759566","-0.577673628","0.492032313","-0.636604276","D"
"1.71E+18","5.478101563","-1.785883904","-3.27213645","-5.371516228","-0.63616842","0.749011278","0.185126603","-0.523209691","0.550762892","0.934578657","0.122722778","-0.601830969","0.479961234","-0.626399098","D"
"1.71E+18","5.488121826","-1.949181318","-3.521434069","-5.289460182","-0.668150187","0.710442722","0.221012339","-0.577012777","0.167425931","1.138286471","0.108544595","-0.62613093","0.467403706","-0.614582714","D"
"1.71E+18","5.498141846","-1.703143001","-3.715909004","-5.485305786","-0.696666539","0.669125855","0.258701444","-0.799930751","0.139620543","1.124095917","0.094503322","-0.650521908","0.45406163","-0.60143033","D"
"1.71E+18","5.508161621","-1.20847261","-4.074000835","-5.483946323","-0.721474826","0.62606734","0.295828223","-1.12331295","0.195481241","1.12221694","0.08204629","-0.675054579","0.438423792","-0.587668727","N"
"1.71E+18","5.518181641","-0.40902862","-4.318043709","-5.584987164","-0.741735935","0.582829833","0.331869811","-1.287850976","0.260279357","1.043282866","0.072012299","-0.699476761","0.42031794","-0.573480124","N"
"1.71E+18","5.528201904","1.28660202","-4.717758179","-5.661411285","-0.757706285","0.541941822","0.363566607","-1.352843761","0.500645518","0.897343516","0.066695569","-0.723680478","0.397580022","-0.560150462","N"
"1.71E+18","5.53822168","3.157101393","-5.16007185","-5.593539715","-0.768642485","0.507279694","0.389687657","-1.276187897","0.602690458","0.835989952","0.068828428","-0.747505341","0.368889669","-0.548104897","N"
"1.71E+18","5.548241455","4.818649292","-5.522951126","-5.373028278","-0.774330556","0.480862349","0.411319435","-1.159400463","0.743670702","0.739635885","0.078507714","-0.77024508","0.335234602","-0.536821044","D"
"1.71E+18","5.558261719","5.968800545","-5.856926918","-5.034772396","-0.774949312","0.463339299","0.429849297","-1.113997221","0.802255154","0.640356481","0.094984369","-0.791324688","0.297875617","-0.525407817","D"
"1.71E+18","5.568281494","6.535754681","-6.050753593","-4.474287033","-0.770633221","0.453951865","0.447271913","-1.092175007","0.644574165","0.684075773","0.116051553","-0.810184292","0.259301707","-0.512733942","D"
"1.71E+18","5.578301514","7.04304266","-6.174676895","-3.780834675","-0.761419773","0.453172445","0.463546306","-1.087289572","0.631986976","0.75259465","0.14074063","-0.826322456","0.221278907","-0.498416584","D"
"1.71E+18","5.588321777","7.721574783","-6.327876091","-2.890094757","-0.747217953","0.462525338","0.477216601","-1.092427492","0.830000877","0.676347852","0.169567473","-0.839414651","0.184367432","-0.482326222","D"
"1.71E+18","5.598341797","8.573153496","-6.386855125","-1.71661818","-0.727379918","0.484884411","0.485598266","-1.092062831","1.030557394","0.42750302","0.203934462","-0.848823288","0.149325679","-0.464340003","D"
"1.71E+18","5.608361572","9.37938118","-6.461075306","-0.527183235","-0.7017138","0.520445287","0.486553937","-1.069679022","1.226274014","0.324908584","0.24386905","-0.85417372","0.116894075","-0.444129498","D"
"1.71E+18","5.618381592","10.12020206","-6.607395649","0.956742883","-0.66895479","0.569097459","0.478150368","-1.062551618","1.375238419","0.298888296","0.28948248","-0.855191256","0.087881209","-0.420861946","D"
"1.71E+18","5.628401855","10.17968464","-6.750627995","2.458220243","-0.627092957","0.628275394","0.460461378","-1.070600033","1.395345211","0.297046006","0.33916685","-0.852146317","0.063854119","-0.393363986","D"
"1.71E+18","5.638421631","9.959944725","-6.553787708","3.610738516","-0.576641321","0.692074955","0.434185892","-1.231754065","1.333498836","0.29825139","0.38967903","-0.845581157","0.045666798","-0.362018551","D"
"1.71E+18","5.64844165","9.518238068","-6.249414444","4.351946354","-0.520937264","0.754543483","0.3991099","-1.528516531","1.178821325","0.311019033","0.438663577","-0.835765875","0.03240917","-0.328663046","D"
"1.71E+18","5.658461914","9.762178421","-6.043435574","5.151795387","-0.460236549","0.814216852","0.353882968","-1.596541405","1.199592352","0.472716272","0.486788662","-0.82244261","0.023013749","-0.293419995","D"
"1.71E+18","5.668481689","10.64979744","-5.806623459","5.713481426","-0.394923985","0.870613992","0.293371618","-1.481342554","1.425879717","0.639840841","0.536321119","-0.804008596","0.015999566","-0.256269516","D"
"1.71E+18","5.678501465","11.61068344","-5.493432522","6.278033733","-0.326638609","0.920696855","0.213599652","-1.508108735","1.632525921","0.733254075","0.58805456","-0.778901167","0.010620514","-0.217697389","D"
"1.71E+18","5.688521484","11.85246658","-4.998479843","6.888494968","-0.255736589","0.959537387","0.11784406","-1.586899519","1.396038294","0.953368783","0.639888012","-0.747568934","0.007919553","-0.177824307","D"
"1.71E+18","5.698541748","11.7930851","-4.328732491","7.343120098","-0.183136627","0.983001411","0.013013668","-1.664946914","1.128830314","1.143388987","0.688901872","-0.711634466","0.009122571","-0.1375044","D"
"1.71E+18","5.708561523","11.62187767","-3.684103251","7.777369499","-0.109951943","0.989175975","-0.097167261","-1.742022514","1.063359976","1.237105727","0.734248812","-0.671726926","0.014117637","-0.097274395","D"
"1.71E+18","5.718581543","11.36930847","-3.072026491","8.125470161","-0.036597665","0.977467716","-0.207888409","-1.721520066","0.986048579","1.320223689","0.775024784","-0.628913973","0.02286946","-0.057278472","D"
"1.71E+18","9.145418701","-4.859167576","-1.473489165","-2.818214417","0.472700685","-0.057440009","-0.879348993","-0.202436954","0.168142498","0.85128814","0.575948862","0.213720236","0.121033678","-0.77971623","D"
"1.71E+18","9.155438721","-5.220815659","-1.561701894","-2.990006685","0.460060656","0.000777763","-0.88788718","-0.219627857","0.201660559","0.810052097","0.570670098","0.191380719","0.139390947","-0.786307416","D"
"1.71E+18","9.165458496","-5.597294331","-1.638628602","-3.132973194","0.444787651","0.062977612","-0.893419147","-0.237100244","0.261363178","0.784135759","0.564617056","0.167367559","0.158992214","-0.792412296","D"
"1.71E+18","9.17547876","-5.874676704","-1.709174514","-3.251178741","0.426710993","0.128424972","-0.89522332","-0.222472042","0.301689744","0.704305351","0.557755793","0.141835372","0.179641498","-0.797822256","D"
"1.71E+18","9.185498779","-6.097309113","-1.761853695","-3.343329668","0.405814677","0.195789248","-0.892737985","-0.208137006","0.371990293","0.655463815","0.550045869","0.115137838","0.200933566","-0.802383176","D"
"1.71E+18","9.195518555","-6.32867527","-1.790077806","-3.467570782","0.382124186","0.264631242","-0.885410368","-0.205045879","0.424318373","0.647556365","0.541369013","0.087368937","0.222848586","-0.805993221","D"
"1.71E+18","9.205538574","-6.48949337","-1.836536646","-3.555250406","0.355584979","0.334186763","-0.872856557","-0.19706136","0.419231206","0.58879894","0.531625124","0.058657522","0.245216279","-0.808580899","D"
"1.71E+18","9.215558838","-6.621854305","-1.885227442","-3.62232542","0.326200306","0.403186589","-0.855005264","-0.186490774","0.356716394","0.517221451","0.520906586","0.02922449","0.267662663","-0.810036464","D"
"1.71E+18","9.225578613","-6.775134087","-1.940244079","-3.695722342","0.294028461","0.471204549","-0.83157295","-0.179968983","0.297853708","0.481215954","0.509200562","-0.000929096","0.29019417","-0.810247753","D"
"1.71E+18","9.235598633","-6.887469769","-2.019355774","-3.747049093","0.259005129","0.537450254","-0.802535713","-0.167376071","0.240839541","0.447967291","0.496522563","-0.03177783","0.312605684","-0.809155861","D"
"1.71E+18","9.245618896","-6.961848736","-2.101360321","-3.772470236","0.22132355","0.601083636","-0.76792866","-0.139154941","0.164648235","0.383117259","0.482997716","-0.06323346","0.334719584","-0.806645996","D"
"1.71E+18","9.255638672","-6.955000877","-2.220709801","-3.792672634","0.181185722","0.660945356","-0.728232801","-0.089663491","0.106861651","0.331885815","0.468715277","-0.095095206","0.356146746","-0.802759252","D"
"1.71E+18","9.265658447","-6.853431225","-2.368190765","-3.82801342","0.138685137","0.715981483","-0.684205353","-0.026731387","0.097022057","0.322083831","0.453798388","-0.127238421","0.376440853","-0.797602487","D"
"1.71E+18","9.275678711","-6.69849968","-2.603901386","-3.835921049","0.093802422","0.765356362","-0.636734545","0.025582373","0.118753195","0.335053086","0.438463691","-0.159682186","0.395138369","-0.791275597","D"
"1.71E+18","9.28569873","-6.612243652","-2.846126795","-3.879034042","0.046692833","0.808839381","-0.586173058","0.085936576","0.126082003","0.317420065","0.42290687","-0.192582349","0.412098895","-0.783732451","D"
"1.71E+18","9.295718506","-6.743480206","-3.052760839","-3.937330723","-0.002311809","0.846975803","-0.531626463","0.116539121","0.145761073","0.381800532","0.406893496","-0.226177869","0.427820442","-0.774758649","D"
"1.71E+18","9.305738525","-7.096381664","-3.129869223","-4.029946327","-0.052329149","0.88075155","-0.470678926","0.10843572","0.120301425","0.385672212","0.38984051","-0.260641945","0.443538409","-0.763782723","D"
"1.71E+18","9.315758789","-7.275971889","-3.243409395","-4.169349194","-0.103070073","0.909067035","-0.403700441","0.079113752","0.004186988","0.458296418","0.371466286","-0.295706797","0.459028611","-0.750908306","D"
"1.71E+18","9.325778564","-7.357823372","-3.301098108","-4.439798355","-0.154735208","0.930542767","-0.331884831","0.006862268","-0.030945361","0.492865115","0.351624258","-0.331222439","0.473655228","-0.73641229","D"
"1.71E+18","9.335798584","-7.03921032","-3.33131361","-4.718910217","-0.207612753","0.943594933","-0.257925659","-0.097257838","0.105446815","0.453512877","0.330167713","-0.366674564","0.486402037","-0.721077078","D"
"1.71E+18","9.345818848","-6.744646072","-3.469198227","-4.870132446","-0.260682911","0.947605968","-0.184628367","-0.167509228","0.139247179","0.616269052","0.308135653","-0.40167507","0.496329482","-0.705242342","D"
"1.71E+18","9.355838623","-6.419111252","-3.380903244","-5.186714172","-0.313280046","0.943030834","-0.112021826","-0.211820692","0.290962815","0.673621655","0.285335335","-0.436053569","0.503831691","-0.688908499","D"
"1.71E+18","9.365858643","-5.65199995","-3.389061451","-5.55258894","-0.36639756","0.929432809","-0.043677531","-0.320705742","0.372843921","0.652442276","0.261777338","-0.469487913","0.5076833","-0.673284134","D"
"1.71E+18","9.375878662","-4.915765285","-3.463817835","-5.668373108","-0.418698162","0.907948911","0.017916966","-0.379595935","0.184397399","0.746517897","0.239033086","-0.501823366","0.507081643","-0.658714591","D"
"1.71E+18","9.385898926","-4.671949863","-3.348067284","-5.874010563","-0.468589425","0.880115926","0.076292396","-0.357506275","0.14335233","0.818101645","0.216435996","-0.533025325","0.50401409","-0.644212353","D"
"1.71E+18","9.395918457","-4.270306587","-3.176983118","-6.164572716","-0.517356873","0.845704496","0.130867198","-0.433769345","0.4050892","0.912071109","0.193185579","-0.563152738","0.498289666","-0.630274494","D"
"1.71E+18","9.405938477","-4.013205051","-3.128796339","-6.392979145","-0.564377844","0.805197418","0.182030037","-0.533827722","0.602471709","1.14644599","0.16940263","-0.59224678","0.490161987","-0.616674797","D"
"1.71E+18","9.41595874","-3.839915037","-3.192244053","-6.532333851","-0.60864675","0.758991659","0.231260255","-0.593929052","0.57052207","1.217088819","0.14536438","-0.620700888","0.479958892","-0.60269337","D"
"1.71E+18","9.425978516","-3.683239222","-3.260688782","-6.52858305","-0.648278356","0.708227575","0.279551625","-0.672675014","0.207177699","1.271489143","0.121591455","-0.648393769","0.468360257","-0.587741282","D"
"1.71E+18","9.435998535","-1.964779615","-3.355738878","-6.837682247","-0.68393153","0.654762268","0.32175234","-0.859250963","0.264869809","1.072809577","0.099968962","-0.675013437","0.453026522","-0.573698715","N"
"1.71E+18","9.446018799","0.341323376","-3.765773296","-6.882573605","-0.715319633","0.603901148","0.351598918","-1.141568303","0.62859714","1.044366837","0.085625555","-0.700755318","0.429815586","-0.562911185","N"
"1.71E+18","9.456038818","2.171647072","-4.192801476","-6.726212978","-0.740430355","0.558860838","0.373413712","-1.260988712","0.83329004","1.00570631","0.079359999","-0.725522396","0.40040493","-0.554071536","N"
"1.71E+18","9.466058594","3.775062799","-4.663681984","-6.517209053","-0.759428799","0.520497322","0.39032197","-1.360124111","0.84463042","0.670499802","0.080737779","-0.749270607","0.365724682","-0.546187438","D"
"1.71E+18","9.476078613","4.383796215","-5.204585552","-6.070116043","-0.771494627","0.488591433","0.407523096","-1.365270138","0.577738643","0.704171479","0.087869533","-0.771897293","0.328536323","-0.537138377","D"
"1.71E+18","9.4860979","5.13519001","-5.608338833","-5.489340305","-0.776482046","0.463449091","0.426955551","-1.254859686","0.438131779","0.734787822","0.099424986","-0.793095496","0.290649795","-0.525962988","D"
"1.71E+18","9.496118652","5.977955341","-5.845844746","-4.694018841","-0.774655521","0.44811222","0.446211249","-1.22899127","0.4469226","0.586015463","0.116286929","-0.811971798","0.252601319","-0.51319763","D"
"1.71E+18","9.506137451","7.061375618","-5.994778156","-3.784300327","-0.766620994","0.444908023","0.462979078","-1.228893161","0.699989557","0.387179792","0.139153283","-0.827837634","0.214882279","-0.499146274","D"
"1.71E+18","9.516157471","7.59791851","-6.066974163","-2.709038258","-0.752851784","0.45482111","0.475764692","-1.092927694","0.964704037","0.403889328","0.167928512","-0.84026091","0.178448709","-0.483650384","D"
"1.71E+18","9.526177734","7.88417244","-6.079519749","-1.456614017","-0.733209908","0.476533055","0.485097826","-0.841268301","1.076735497","0.483652353","0.200607085","-0.849311644","0.145666216","-0.466055828","D"
"1.71E+18","9.53619751","7.934541702","-6.192990303","-0.337337106","-0.707494617","0.508858144","0.490423769","-0.613107979","1.034782052","0.576257408","0.23639974","-0.855271879","0.117140524","-0.445986018","D"
"1.71E+18","9.546217529","8.445590019","-6.364327431","0.493195504","-0.675988495","0.549658418","0.490831614","-0.547232449","1.017434597","0.805570483","0.274880151","-0.85847817","0.091820705","-0.423113778","D"
"1.71E+18","9.556237793","9.80500412","-6.444564342","1.174067497","-0.640007734","0.599214137","0.480970591","-0.612784684","1.139708042","0.91769594","0.318042583","-0.857882333","0.067254694","-0.39794935","D"
"1.71E+18","9.566257568","11.70065594","-6.784568787","2.07300663","-0.598724008","0.659705818","0.454222709","-0.701614857","1.260307789","0.920411289","0.369039345","-0.851669978","0.042066572","-0.369727994","D"
"1.71E+18","9.576277588","13.2828083","-7.013715267","3.177474499","-0.550585151","0.728781879","0.407103449","-0.736112297","1.389839888","1.07425046","0.427598976","-0.838603062","0.017223004","-0.33705709","D"
"1.71E+18","9.586297607","14.61374855","-6.966618061","4.515281677","-0.494830579","0.801105261","0.336709321","-0.813442707","1.515377283","1.33313632","0.491946153","-0.817511719","-0.005408079","-0.299389963","D"
"1.71E+18","9.596317871","14.58956242","-6.54820013","5.499608994","-0.432693779","0.867420673","0.24567759","-1.09603858","1.400584698","1.435947895","0.557545968","-0.788844921","-0.02371678","-0.257495089","D"
"1.71E+18","9.606337646","14.09434319","-5.936558247","6.569160461","-0.366451234","0.919779122","0.140427917","-1.549976468","1.243474722","1.471556425","0.619748124","-0.754291849","-0.035464978","-0.21377171","D"
"1.71E+18","9.616357666","13.41837502","-4.867999554","6.977700233","-0.297763586","0.954153717","0.030456735","-1.930935144","1.085351229","1.411208987","0.675458411","-0.716609291","-0.041224885","-0.168901099","D"
"1.71E+18","9.62637793","13.14163113","-3.88786459","7.427758694","-0.229287758","0.969502926","-0.086552501","-2.20853281","0.985529482","1.200596809","0.726315322","-0.674549229","-0.041316915","-0.125468639","D"
"1.71E+18","9.636397461","12.53802299","-2.929289818","7.944054604","-0.159698859","0.965770125","-0.20441252","-2.23716712","0.934208572","1.024679422","0.771564711","-0.629696274","-0.035725957","-0.083031371","D"
"1.71E+18","9.64641748","11.6026268","-1.960444212","8.188622475","-0.088612102","0.944076478","-0.317596674","-2.12057066","0.918289363","0.965744376","0.810594133","-0.583603744","-0.024664317","-0.041660631","D"
"1.71E+18","9.656437744","10.41904354","-0.916127622","8.242198944","-0.017577201","0.907836318","-0.418956369","-2.1644907","0.686081648","0.872386634","0.842301148","-0.538930105","-0.008727162","-0.002667696","D"
"1.71E+18","9.66645752","9.146654129","0.002866977","8.348940849","0.053888246","0.860963583","-0.50580436","-2.159799576","0.419203222","0.785147011","0.867032673","-0.496954412","0.011581867","0.034011702","D"
"1.71E+18","9.676477539","8.186348915","0.653075457","8.379640579","0.125949949","0.806553364","-0.577588499","-2.015613556","0.338115335","0.691129208","0.885461627","-0.458202083","0.035448595","0.06893597","D"
"1.71E+18","9.686497559","7.599660397","1.183214426","8.20882225","0.196176127","0.745256722","-0.637265623","-1.825051904","0.53960973","0.645032406","0.899009244","-0.421442573","0.061264596","0.10205573","D"
"1.71E+18","9.696517822","7.709632874","1.536876082","7.810276985","0.262564421","0.675904989","-0.688630879","-1.64198947","0.81754905","0.666505694","0.909242841","-0.384564752","0.088286517","0.132639125","D"
"1.71E+18","9.706537598","7.213405132","1.450320482","7.860014915","0.323124528","0.599892437","-0.731928766","-1.445866227","0.91121608","0.654353142","0.916331844","-0.347648753","0.114786617","0.162174117","D"
"1.71E+18","9.716557617","6.442355633","1.917181015","7.693691254","0.379460484","0.520946264","-0.764607608","-1.339070439","0.672123194","0.760609865","0.919747048","-0.31253669","0.141481508","0.190707342","D"
"1.71E+18","9.726577881","5.606116295","2.308402061","7.491307735","0.432637572","0.443356633","-0.78502208","-1.439076781","0.339312524","0.849566758","0.919245967","-0.281141014","0.168667412","0.21794028","D"
"1.71E+18","9.736597656","5.200104237","2.506679773","7.104929447","0.481562972","0.367297709","-0.795732081","-1.430964828","0.343380481","0.80406338","0.91575899","-0.252585836","0.195791634","0.24341642","D"
"1.71E+18","9.746617676","5.069591045","2.569816113","6.728298187","0.524733543","0.291439772","-0.799823463","-1.36512661","0.381900132","0.683643103","0.910401153","-0.225148145","0.222253406","0.2666112","D"
"1.71E+18","9.756637939","4.670595646","2.718196869","6.318902016","0.562470436","0.216681212","-0.797919989","-1.278061867","0.256188691","0.69759351","0.903415119","-0.198899287","0.247949763","0.287751898","D"
"1.71E+18","9.766657715","4.560847759","2.824983835","5.787425995","0.595616698","0.144902557","-0.790091157","-1.270711184","0.100077346","0.667608857","0.895070655","-0.174408906","0.273012723","0.306421683","D"
"1.71E+18","9.77667749","4.380522251","2.685967207","5.31484127","0.623390853","0.076019645","-0.778206229","-1.278359056","0.062255524","0.616234243","0.886049974","-0.150945815","0.296837055","0.322519412","D"
"1.71E+18","9.78669751","4.15688467","2.630036831","4.992593765","0.646059215","0.010240347","-0.763218582","-1.176653147","0.1437819","0.710087538","0.876498397","-0.128456617","0.319201504","0.336689658","D"
"1.71E+18","9.796717773","3.892010212","2.703779936","5.00669384","0.665161252","-0.052874602","-0.744825423","-1.060577393","0.130633399","0.763898909","0.865855664","-0.10730076","0.340696119","0.350295364","D"
"1.71E+18","9.806737549","3.72516036","2.393574238","4.739318371","0.680298328","-0.113853633","-0.724038422","-0.9813236","0.217827022","0.720696807","0.854276579","-0.08707358","0.361107985","0.363635649","D"
"1.71E+18","9.816757568","4.014631748","1.925954819","4.340053082","0.688905656","-0.172495037","-0.704027355","-0.926500142","0.248941571","0.69778657","0.843541466","-0.066121909","0.37896466","0.37476869","D"
"1.71E+18","9.826777832","3.727454185","1.933342695","3.977916479","0.693873584","-0.228532881","-0.682870567","-1.028132558","0.141862944","0.644174337","0.832950585","-0.045307635","0.395615882","0.384224868","D"
"1.71E+18","9.836797607","3.51236701","1.711303115","3.539980173","0.696696758","-0.278945178","-0.660911024","-1.176295638","0.021422565","0.73390907","0.822623498","-0.026317683","0.410915902","0.392104891","D"
"1.71E+18","9.846817627","3.066239119","1.438781619","3.337198257","0.696527779","-0.324442506","-0.639989197","-1.134500742","-0.165303618","0.88818872","0.812819393","-0.008722431","0.424180763","0.399148253","D"
"1.71E+18","9.856837646","2.701782227","1.279798627","2.997087717","0.694120526","-0.364650786","-0.620666325","-0.98805052","-0.177661866","1.01628089","0.803527882","0.006991355","0.435451446","0.405803312","D"
"1.71E+18","9.866857666","2.5384624","1.08039391","2.652419806","0.690622449","-0.400006831","-0.602524102","-0.885034621","-0.032793462","0.912872612","0.794989472","0.021139025","0.445298894","0.411404835","D"
"1.71E+18","9.876877686","2.45386672","0.850999355","2.44687891","0.685722709","-0.432418406","-0.585490286","-0.772636712","0.113585949","0.75794518","0.787234673","0.034812348","0.453919564","0.415940906","D"
"1.71E+18","9.886897705","2.357671261","0.700254858","2.076606274","0.679973662","-0.461983055","-0.569392443","-0.653316438","0.160408318","0.580928087","0.780161898","0.047866319","0.461532885","0.419575852","D"
"1.71E+18","9.896917969","2.392945051","0.573880196","1.586137772","0.675016105","-0.487478197","-0.553821743","-0.584241509","0.064275622","0.495395839","0.774254445","0.059910278","0.46850816","0.421237694","D"
"1.71E+18","9.9069375","1.525083899","0.295405149","1.236288786","0.670108616","-0.508458376","-0.540762901","-0.393146276","-0.468668699","0.691260397","0.769459796","0.070270789","0.474004803","0.422271343","D"
"1.71E+18","9.91695752","2.00840807","0.14918004","1.055775404","0.666304111","-0.524281025","-0.530253053","-0.139311254","-0.741725504","0.897059143","0.766123251","0.078683958","0.478207378","0.422115797","N"
"1.71E+18","9.926977783","0.404553503","-0.432227969","1.27190268","0.658231497","-0.539250076","-0.525300562","-0.049436271","-0.665156722","0.662995934","0.763230836","0.086676857","0.479413008","0.424416058","N"
"1.71E+18","9.936997559","2.615698099","-0.524199247","0.315106183","0.651977301","-0.551399589","-0.520465374","0.008590996","0.652672112","0.703403056","0.762315295","0.094981318","0.480360127","0.4232118","N"
"1.71E+18","9.947017578","1.227932811","-0.488117665","0.264293343","0.647200465","-0.564485252","-0.512335777","0.009873509","-0.119673073","0.230872214","0.761824888","0.104926808","0.482516823","0.419274016","N"
"1.71E+18","9.957037598","0.750008941","-0.393026441","0.410735756","0.643723369","-0.570844412","-0.509663701","-0.106293499","-1.019304514","0.283391118","0.761718886","0.109845267","0.482806565","0.417871274","N"
"1.71E+18","9.967057129","0.909892619","-0.517129004","0.295085609","0.638671875","-0.577665567","-0.508331299","-0.321609437","0.400770426","0.003494382","0.761569801","0.114952176","0.482307303","0.417345294","N"
"1.71E+18","9.977076904","0.854156077","-0.204565838","-0.016286939","0.636409819","-0.583162487","-0.504880369","-0.137203157","0.515291333","-0.030321598","0.761625218","0.119565718","0.482973975","0.415171375","N"
"1.71E+18","9.987096924","0.321590185","-0.194563538","-0.113449968","0.635731697","-0.585483134","-0.503045619","-0.153248727","-0.174755573","-0.037115455","0.761907081","0.121872046","0.48334708","0.41354626","N"
"1.71E+18","9.997116943","0.357866138","-0.142842188","-0.159861147","0.635714173","-0.586387396","-0.502013505","-0.205462039","0.018882453","0.095992446","0.76238329","0.123241792","0.483533569","0.412042144","N"
"1.71E+18","10.00713696","0.215948164","-0.101486221","-0.309967816","0.636553168","-0.58622539","-0.501138568","-0.271944344","0.167203784","-0.010122359","0.763004624","0.123958183","0.483802742","0.410357398","N"
"1.71E+18","10.01715698","0.122119404","-0.190329596","-0.339140356","0.637719274","-0.584962904","-0.501131535","-0.234383583","0.125810623","0.114306033","0.763906961","0.124066195","0.483778683","0.408671188","N"
"1.71E+18","10.02717676","-0.050689127","-0.296096772","-0.461042285","0.63884002","-0.582704604","-0.502333522","-0.188125789","0.071428299","0.21266067","0.765272968","0.123819452","0.483220426","0.406846675","N"
"1.71E+18","10.03719702","-0.287463874","-0.407528669","-0.549687445","0.640031397","-0.578572214","-0.505583107","-0.168290555","0.016300976","0.224561989","0.767268163","0.122646694","0.481836325","0.405081947","N"
"1.71E+18","10.0472168","-0.625863194","-0.505524695","-0.668450892","0.641218066","-0.572341442","-0.511140764","-0.117170155","-0.078415453","0.23094368","0.769875153","0.120345965","0.479527333","0.403562706","N"
"1.71E+18","10.05723682","-0.79161489","-0.635056138","-0.780731857","0.642430544","-0.563885033","-0.518957436","-0.089406192","-0.038745642","0.307745337","0.773142321","0.11692612","0.476287274","0.402156407","N"
"1.71E+18","10.06725708","-0.888118744","-0.787468851","-0.875329196","0.643318236","-0.554133177","-0.528278589","-0.083625793","0.03481549","0.325245142","0.776983608","0.113117287","0.472297776","0.400544585","N"
"1.71E+18","10.07727686","-0.965549111","-0.892458081","-0.96767354","0.643892527","-0.543299377","-0.538728476","-0.090562999","0.105799317","0.307359517","0.781317482","0.109059625","0.467698358","0.398631924","N"
"1.71E+18","10.08729688","-1.116277337","-0.988385677","-1.042547584","0.644179523","-0.531128049","-0.550396144","-0.080657125","0.153244138","0.293667078","0.786074219","0.104508296","0.462471549","0.396592529","D"
"1.71E+18","10.09731689","-1.329000592","-1.105391145","-1.109036088","0.643968523","-0.517342269","-0.563614845","-0.066240191","0.037926316","0.258622169","0.791245603","0.099264356","0.456441861","0.394636585","D"
"1.71E+18","10.10733691","-1.456491709","-1.211901307","-1.180986643","0.643195808","-0.501986146","-0.578194678","-0.08054316","-0.002499938","0.225197971","0.796803737","0.093405068","0.449642246","0.392684581","D"
"1.71E+18","10.11735693","-1.618778348","-1.298487425","-1.254266143","0.641828537","-0.485117972","-0.593899727","-0.116285264","0.008448601","0.203381538","0.802696043","0.086990464","0.44213438","0.390677787","D"
"1.71E+18","10.12737744","-1.765698552","-1.378382087","-1.297986507","0.639846027","-0.466634989","-0.610613704","-0.168730795","-0.017663836","0.205477715","0.897389058","0.259995913","0.356504242","-2.18E-17","D"
"1.71E+18","10.13739746","-1.902638793","-1.468021989","-1.344677091","0.637060523","-0.446867108","-0.628063619","-0.224447429","-0.001649827","0.175976336","0.902225906","0.249413896","0.351796666","-0.004531389","D"
"1.71E+18","10.14741748","-2.094429493","-1.512515068","-1.455532432","0.633623958","-0.425212473","-0.646308839","-0.239672422","0.038203746","0.160102904","0.907232288","0.23785138","0.346802967","-0.00917008","D"
"1.71E+18","10.1574375","-2.251764774","-1.560078025","-1.555083036","0.629787207","-0.401334733","-0.665055335","-0.249507546","0.013883501","0.174943149","0.912321075","0.225223672","0.341682051","-0.014074307","D"
"1.71E+18","10.16745752","-2.305718184","-1.57902348","-1.684060931","0.625430524","-0.375820577","-0.683809638","-0.272662461","0.010311484","0.137392521","0.917350405","0.211925494","0.336426449","-0.019319669","D"
"1.71E+18","10.17747729","-2.497627258","-1.568717837","-1.862618446","0.620929182","-0.348094404","-0.702337027","-0.287860155","0.059550643","0.131933093","0.922246058","0.197742425","0.331254302","-0.025116547","D"
"1.71E+18","10.18749731","-2.600837708","-1.532297254","-2.00743556","0.616331816","-0.317835897","-0.720496714","-0.298811615","0.101191521","0.134376168","0.926966225","0.182469716","0.32627664","-0.031339423","D"
"1.71E+18","10.19751733","-2.643978834","-1.521060348","-2.168101549","0.611471057","-0.28580609","-0.737846971","-0.307714224","0.118920654","0.088295639","0.931380478","0.166591641","0.321440126","-0.038132023","D"
"1.71E+18","10.20753735","-2.561875582","-1.49785912","-2.32744813","0.606244862","-0.252618909","-0.754089534","-0.302411735","0.10202986","0.090622187","0.935391501","0.150504436","0.316707526","-0.045692379","D"
"1.71E+18","10.21755737","-2.631619692","-1.503733873","-2.496726751","0.600469589","-0.218309343","-0.769270718","-0.277624011","0.072374225","0.104933619","0.938999417","0.134188502","0.31202259","-0.053996908","D"
"1.71E+18","10.22757739","-2.80634594","-1.514253259","-2.626808643","0.593898296","-0.181868926","-0.783714592","-0.256236434","0.037017196","0.155388236","0.942287151","0.117008364","0.307330032","-0.062867317","D"
"1.71E+18","10.23759741","-3.23206687","-1.483082771","-2.666772127","0.586309075","-0.142311171","-0.797489345","-0.242818356","-0.079688996","0.196445704","0.945316143","0.098187424","0.30267897","-0.071569465","D"
"1.71E+18","10.24761743","-3.453175068","-1.408751726","-2.803202629","0.577967703","-0.099239282","-0.810003042","-0.233988702","-0.131244764","0.219411671","0.947938727","0.077546742","0.298303515","-0.080085947","D"
"1.71E+18","10.25763745","-3.248975277","-1.375202537","-2.987296343","0.568852782","-0.055116694","-0.820590436","-0.250813782","-0.089857087","0.216495097","0.949905416","0.056660638","0.294099211","-0.089302857","D"
"1.71E+18","10.26765723","-3.140726328","-1.340149999","-3.208856821","0.558640182","-0.011396197","-0.829331875","-0.261505604","0.01444793","0.175645411","0.951169516","0.036375789","0.289846276","-0.099713004","D"
"1.71E+18","10.27767749","-3.250130892","-1.2903229","-3.441326618","0.547307789","0.03374153","-0.83625102","-0.241994619","0.063197531","0.175728619","0.951718919","0.015644305","0.285709221","-0.111161082","D"
"1.71E+18","10.28769751","-3.314159155","-1.250478983","-3.52244544","0.534651101","0.08024814","-0.841254115","-0.19772172","-0.032655992","0.190894067","0.951557031","-0.005712184","0.281674151","-0.123151519","D"
"1.71E+18","10.29771729","-3.388174534","-1.218480587","-3.583122492","0.520473242","0.12734732","-0.844328284","-0.143474281","-0.076474547","0.172575474","0.950714591","-0.027463231","0.277635772","-0.135299457","D"
"1.71E+18","10.3077373","-3.528121948","-1.135477304","-3.656705856","0.504989445","0.175221875","-0.845152617","-0.102660894","-0.020604566","0.185972989","0.949117425","-0.049766406","0.273764488","-0.147487269","D"
"1.71E+18","10.31775732","-3.741383791","-1.102096796","-3.600256205","0.488217235","0.223929107","-0.843504429","-0.075268507","-0.01503627","0.148619235","0.946748438","-0.072777257","0.270094897","-0.159435812","D"
"1.71E+18","10.32777734","-4.070636749","-0.960914969","-3.706643343","0.470352113","0.274444222","-0.838718832","-0.087325871","-0.090697885","0.110035419","0.943455295","-0.097068146","0.26686768","-0.171031042","D"
"1.71E+18","10.33779736","-4.181828022","-0.73118186","-3.781266451","0.451963097","0.326479018","-0.830145061","-0.151502162","-0.159853011","0.082082987","0.938983589","-0.122384272","0.264479797","-0.182708448","D"
"1.71E+18","10.34781738","-3.975104332","-0.537962317","-3.797145128","0.433476746","0.377114385","-0.818463624","-0.181889713","-0.13701731","0.053525329","0.933438616","-0.1471557","0.262894272","-0.19474131","D"
"1.71E+18","10.3578374","-3.883276939","-0.560736239","-3.821728945","0.413796574","0.425163507","-0.804989755","-0.190285712","0.019355595","0.088635445","0.927205626","-0.170982819","0.261285297","-0.206844859","D"
"1.71E+18","10.36785718","-3.865116119","-0.473194957","-4.003642082","0.391919374","0.471805692","-0.789809227","-0.164181828","0.144084871","0.097014487","0.920192661","-0.194519399","0.259340664","-0.219431531","D"
"1.71E+18","10.37787744","-4.082647324","-0.368354559","-4.045701504","0.368674666","0.518269598","-0.771670699","-0.083197862","0.068232477","0.102328718","0.912048898","-0.218445233","0.257771845","-0.232384094","D"
"1.71E+18","10.38789746","-4.527202606","-0.34090668","-3.983767986","0.344060332","0.565291762","-0.749711812","-0.033360749","-0.178649247","0.166627765","0.902759357","-0.243541972","0.256576315","-0.244707313","D"
"1.71E+18","10.39791748","-5.033891201","-0.212948784","-3.951509714","0.318644255","0.613817215","-0.722284138","-0.057688355","-0.270295978","0.194925189","0.891969791","-0.270533648","0.256260587","-0.255992436","D"
"1.71E+18","10.4079375","-5.09710741","-0.053237412","-3.995800257","0.292215556","0.662115216","-0.690082252","-0.114633679","-0.2054196","0.173236609","0.879665044","-0.298476583","0.256652679","-0.266890652","D"
"1.71E+18","10.41795752","-4.541190624","0.068030216","-3.969805241","0.265042305","0.705832064","-0.656927586","-0.183163553","-0.163992345","0.122168124","0.866658105","-0.324693267","0.257119599","-0.278150601","D"
"1.71E+18","10.42797754","-4.186391354","-0.037592884","-4.048695087","0.236163259","0.743795574","-0.625296056","-0.220644981","0.032495379","0.152151644","0.853612131","-0.348532498","0.256665296","-0.289817976","D"
"1.71E+18","10.43799707","-4.12030077","-0.121220291","-4.179800987","0.204142034","0.778157651","-0.593967021","-0.196283653","0.245981872","0.147449136","0.840161588","-0.371499665","0.254959787","-0.301847929","D"
"1.71E+18","10.44801733","-4.476408005","-0.05754891","-4.113303185","0.170501307","0.810676634","-0.560118616","-0.177215084","0.062217712","0.099593163","0.825668615","-0.394767909","0.25317781","-0.313577456","D"
"1.71E+18","10.45803735","-5.199835777","0.126312584","-4.047899723","0.136872783","0.843116701","-0.520019472","-0.201447919","-0.239295781","0.179626465","0.809257159","-0.419680461","0.252702566","-0.324210866","D"
"1.71E+18","10.46805713","-5.431245327","0.360837728","-4.006989479","0.103431605","0.874628901","-0.473631144","-0.249824345","-0.401758909","0.290113747","0.790685927","-0.445836603","0.253799436","-0.334113074","D"
"1.71E+18","10.47807739","-5.314637661","0.401110291","-4.09543705","0.06928505","0.902434468","-0.425219566","-0.313273013","-0.370574057","0.327563435","0.77093001","-0.471426073","0.255240435","-0.343913914","D"
"1.71E+18","10.48809741","-4.737235069","0.357309014","-4.206612587","0.032640621","0.924935579","-0.378720224","-0.340746015","-0.039574742","0.279828131","0.75090919","-0.495371968","0.25543394","-0.354253759","D"
"1.71E+18","10.49811743","-4.268606186","0.320265353","-4.15019989","-0.00527082","0.941599429","-0.33669427","-0.334908575","0.22763598","0.250024438","0.731569826","-0.516773985","0.254160416","-0.364901303","D"
"1.71E+18","10.50813745","-3.941081762","0.343612999","-4.143651009","-0.043603681","0.953592002","-0.297928244","-0.274923474","0.273962438","0.245529741","0.71267995","-0.536225244","0.251988817","-0.375568329","D"
"1.71E+18","10.51815747","-3.957165003","0.476884812","-4.105619907","-0.082127579","0.961958587","-0.260558933","-0.255549371","0.092347562","0.171234161","0.693584116","-0.55445578","0.249598319","-0.386290891","D"
"1.71E+18","10.52817749","-4.339130402","0.747820199","-4.045726299","-0.120061427","0.96780318","-0.221229792","-0.302057683","-0.161192834","0.123665184","0.673172816","-0.572487979","0.24827931","-0.396804136","D"
"1.71E+18","10.53819727","-4.737863541","1.023959398","-4.056814194","-0.157631725","0.971300721","-0.178121805","-0.419318318","-0.144899786","0.144979835","0.650599405","-0.590863577","0.24863493","-0.407162687","D"
"1.71E+18","10.54821753","-4.744716167","1.253220558","-4.011282921","-0.195187643","0.971581876","-0.133905262","-0.501253963","-0.017403901","0.189508453","0.626571668","-0.608753773","0.249932412","-0.417565199","D"
"1.71E+18","10.55823755","-4.292194843","1.414295912","-3.956409931","-0.232430741","0.96822691","-0.092265099","-0.452780426","0.18411696","0.307795644","0.602276739","-0.625011374","0.25145225","-0.428246941","D"
"1.71E+18","10.56825708","-3.252248049","1.338352203","-3.848675251","-0.269173443","0.961265028","-0.059289943","-0.340155721","0.614098191","0.308435619","0.580098483","-0.638088778","0.251391607","-0.439466457","D"
"1.71E+18","10.57827734","-2.715979815","1.246872544","-3.616300106","-0.304428935","0.951892197","-0.034993827","-0.267317861","0.689984202","0.100377917","0.56075941","-0.648274287","0.249486542","-0.450606182","D"
"1.71E+18","10.58829736","-3.184635639","1.442737699","-3.401016474","-0.337351292","0.941307068","-0.011643366","-0.282262355","0.338096797","0.002167821","0.541565083","-0.657643484","0.248361361","-0.461008871","D"
"1.71E+18","10.59831738","-3.96052146","1.78807354","-3.200917959","-0.368350446","0.929547787","0.016095987","-0.385052204","0.003405213","0.049364448","0.519998985","-0.667488116","0.250015216","-0.470694355","D"
"1.71E+18","10.60833716","-4.62664032","2.080619097","-3.036427021","-0.397680253","0.916236639","0.048590459","-0.472101212","-0.116950691","0.153649688","0.49557891","-0.677765207","0.254812781","-0.479694092","D"
"1.71E+18","10.61835742","-4.542618275","2.2218225","-3.004683971","-0.426680118","0.900693655","0.081824839","-0.452943295","0.001528144","0.266930223","0.469621257","-0.687645708","0.260875065","-0.48840927","D"
"1.71E+18","10.62837744","-3.946187258","2.27595067","-2.846203566","-0.455056101","0.883633077","0.11007642","-0.41261965","0.254153907","0.183869123","0.444589101","-0.695734613","0.266442411","-0.497295144","D"
"1.71E+18","10.63839722","-3.266652822","2.124449253","-2.680351257","-0.481979489","0.866300046","0.131225362","-0.343063205","0.480623841","0.130691871","0.422083885","-0.701708393","0.270588277","-0.506194159","D"
"1.71E+18","10.64841748","-2.90705204","2.007963657","-2.495223522","-0.507101715","0.849197865","0.147347853","-0.240243256","0.58482331","0.152807951","0.401852194","-0.706290385","0.273546741","-0.514627169","D"
"1.71E+18","10.6584375","-2.843254805","1.966063619","-2.366129637","-0.530597746","0.832158327","0.161180094","-0.155208588","0.578104913","0.241819978","0.382642588","-0.710105282","0.276297915","-0.522489027","D"
"1.71E+18","10.66845728","-2.892865658","1.976065159","-2.264609814","-0.553019524","0.814790606","0.17402941","-0.132741094","0.39163053","0.227460042","0.363646758","-0.713482916","0.279207507","-0.529855239","D"
"1.71E+18","10.67847754","-3.233666182","2.115325928","-2.173984528","-0.574617028","0.796729565","0.187183276","-0.176008582","0.03447777","0.095714912","0.343907372","-0.716576983","0.283035444","-0.536783207","D"
"1.71E+18","10.68849756","-3.518779755","2.295335054","-2.167520761","-0.595989168","0.7774266","0.201009899","-0.241397917","-0.135916591","0.078851789","0.322666885","-0.719362808","0.288135551","-0.543489829","D"
"1.71E+18","10.69851733","-3.424951553","2.341179848","-2.15559268","-0.617488682","0.757014334","0.213629022","-0.262195766","0.022709906","0.185556412","0.300775684","-0.721584803","0.293478935","-0.550199611","D"
"1.71E+18","13.36384009","-7.708978176","-2.953580141","-3.401744366","0.330351055","0.366123259","-0.869955182","-0.239668071","0.588603973","0.548925519","-0.051208386","0.180608988","0.1800078","-0.965585578","D"
"1.71E+18","13.37385986","-7.746940136","-3.102794647","-3.338778257","0.290605664","0.443031669","-0.848098636","-0.220171124","0.564582586","0.499038637","-0.057741782","0.164725455","0.220943867","-0.959539152","D"
"1.71E+18","13.38388013","-7.884140968","-3.220315218","-3.307161808","0.248149052","0.517278194","-0.819051504","-0.187266514","0.512873292","0.423909903","-0.06371558","0.147927278","0.261900306","-0.951559841","D"
"1.71E+18","13.39390015","-8.011538506","-3.314148188","-3.298088312","0.203631297","0.588636994","-0.782330394","-0.130663812","0.450074673","0.403759897","-0.069206038","0.130419727","0.303027222","-0.941475389","D"
"1.71E+18","13.40391992","-8.066599846","-3.406473637","-3.322524548","0.157375902","0.655966043","-0.738201499","-0.104199082","0.351434529","0.412792623","-0.074365401","0.112201162","0.343962425","-0.929285008","D"
"1.71E+18","13.41394019","-8.069271088","-3.495434999","-3.406755924","0.109613836","0.71812737","-0.687224805","-0.108164303","0.293560982","0.378615856","-0.079425256","0.093253029","0.384306465","-0.915043292","D"
"1.71E+18","13.42396021","-7.908474445","-3.612540722","-3.5957582","0.059982631","0.773958385","-0.630389333","-0.100540534","0.266859114","0.391970813","-0.08478345","0.0733179","0.423591558","-0.898891944","D"
"1.71E+18","13.43398022","-7.73316288","-3.727610111","-3.813924313","0.008263973","0.82217896","-0.569169164","-0.118478268","0.217173576","0.431519747","-0.090707182","0.0521671","0.461187597","-0.881111162","D"
"1.71E+18","13.44399976","-7.751141071","-3.803019047","-4.097471714","-0.045379154","0.863087237","-0.503012359","-0.175003603","0.202220559","0.441702604","-0.097289471","0.029859274","0.497596471","-0.861418118","D"
"1.71E+18","13.45402002","-7.505589485","-3.798149586","-4.444747925","-0.100910917","0.895902157","-0.432638854","-0.236293137","0.218248904","0.551352382","-0.104981897","0.006496027","0.532577109","-0.839820405","D"
"1.71E+18","17.0612229","-1.519169688","-0.496344984","-1.117483616","0.434081495","-0.80437094","-0.405660868","-0.216552198","0.165454865","0.777639747","0.00847605","0.26372749","-0.477092627","-0.838307","D"
"1.71E+18","17.07124292","-2.009045362","-0.577770054","-1.356786728","0.441764981","-0.791595876","-0.422160894","-0.245155454","0.135910392","0.847881138","0.004336715","0.264350443","-0.468015383","-0.843244797","D"
"1.71E+18","17.08126245","-2.461929083","-0.658093154","-1.597592115","0.45068723","-0.775286257","-0.442507029","-0.249149114","0.129274786","0.922838449","-0.000386922","0.265131102","-0.456565428","-0.849266462","D"
"1.71E+18","17.09128247","-2.907699823","-0.723231494","-1.860239983","0.46081093","-0.75504905","-0.466427088","-0.231517136","0.136747658","0.946926415","-0.005697277","0.26613816","-0.442670235","-0.856259949","D"
"1.71E+18","17.10130273","-3.340072632","-0.788075209","-2.106578827","0.471965194","-0.7306813","-0.493308902","-0.234874159","0.144545436","0.923469484","-0.011702115","0.267348094","-0.426462836","-0.864012451","D"
"1.71E+18","17.11132251","-3.790851593","-0.845658839","-2.325837135","0.483705163","-0.701930821","-0.522802711","-0.270234674","0.143581092","0.922186255","-0.018258719","0.268691501","-0.407925878","-0.872392233","D"
"1.71E+18","17.12134253","-4.228597641","-0.882393181","-2.548143625","0.495817631","-0.668339491","-0.554515481","-0.296705693","0.187092423","0.967311502","-0.025292202","0.270206445","-0.386950564","-0.881259479","D"
"1.71E+18","17.13136279","-4.598526955","-0.94771415","-2.729739666","0.507766068","-0.629730284","-0.587888956","-0.328353286","0.218627989","0.963667214","-0.032722699","0.271760805","-0.363595381","-0.890434575","D"
"1.71E+18","17.14138257","-4.950987816","-0.994538605","-2.87646389","0.518942893","-0.586372852","-0.621984959","-0.327902794","0.277962148","0.910574436","-0.040514205","0.273186873","-0.3381959","-0.899639481","D"
"1.71E+18","17.15140259","-5.324733257","-1.052047372","-3.008588076","0.529003739","-0.537998855","-0.656286776","-0.307217181","0.374241471","0.918127656","-0.048454802","0.274502249","-0.310652727","-0.908732979","D"
"1.71E+18","17.16142261","-5.653287888","-1.137998819","-3.117801905","0.537370443","-0.484561294","-0.690241516","-0.323793232","0.42689833","0.914332151","-0.056537688","0.275508535","-0.281023636","-0.917564345","D"
"1.71E+18","17.17144287","-5.902029514","-1.237961173","-3.171964169","0.543349802","-0.426563025","-0.723059535","-0.361236095","0.497394294","0.850729823","-0.064669827","0.275973302","-0.249617665","-0.925930716","D"
"1.71E+18","17.18146265","-6.186106205","-1.37043798","-3.235819101","0.546377599","-0.364329785","-0.754145443","-0.343481481","0.555705488","0.801539242","-0.072744981","0.275715604","-0.216582978","-0.9336921","D"
"1.71E+18","17.19148267","-6.446307182","-1.522932172","-3.270392895","0.546078205","-0.297885239","-0.782983422","-0.283886433","0.585131884","0.744790673","-0.080788256","0.274620727","-0.181911395","-0.940725829","D"
"1.71E+18","17.20150293","-6.714820385","-1.688961864","-3.281260014","0.541904926","-0.227522522","-0.80905664","-0.274662435","0.55215323","0.688237548","-0.088575527","0.272514859","-0.145627352","-0.946933456","D"
"1.71E+18","17.21152246","-7.030114651","-1.876534581","-3.306419134","0.533542633","-0.153197646","-0.831782937","-0.287387788","0.541289687","0.655894876","-0.096027359","0.269313537","-0.107604606","-0.952192457","D"
"1.71E+18","17.22154248","-7.20222187","-2.09653616","-3.323427439","0.520640075","-0.075654536","-0.850417793","-0.284235656","0.567246974","0.641112924","-0.103228134","0.264853758","-0.068143974","-0.956322693","D"
"1.71E+18","17.23156274","-7.381826878","-2.291217089","-3.366799593","0.502946317","0.00422995","-0.864307344","-0.308564603","0.542828202","0.603061616","-0.110198488","0.259011943","-0.027552683","-0.959171538","D"
"1.71E+18","17.24158252","-7.394870758","-2.503628492","-3.400966883","0.480570883","0.085341513","-0.872793496","-0.355540335","0.538529396","0.545889199","-0.117122147","0.251823504","0.013717643","-0.960561946","D"
"1.71E+18","17.25160254","-7.438661098","-2.703147173","-3.386157036","0.453457952","0.166180521","-0.87564832","-0.382733464","0.504138112","0.450645268","-0.123809159","0.243172292","0.055164144","-0.960466358","D"
"1.71E+18","17.26162256","-7.510071278","-2.893482447","-3.333182096","0.421970427","0.246475577","-0.872462511","-0.34482199","0.478316963","0.420176744","-0.129984419","0.233185702","0.096918392","-0.958819897","D"
"1.71E+18","17.27164282","-7.563796997","-3.044148207","-3.290106058","0.386620522","0.32543081","-0.862913311","-0.26793766","0.474862218","0.368162334","-0.135508922","0.221984379","0.138802999","-0.955559622","D"
"1.71E+18","17.2816626","-7.581236839","-3.180410147","-3.239709377","0.348041564","0.402426511","-0.846711278","-0.208438933","0.481271029","0.323380649","-0.14041149","0.20975317","0.180687456","-0.950600049","D"
"1.71E+18","17.29168262","-7.616872787","-3.360093117","-3.194853783","0.306491524","0.476576","-0.823977113","-0.165134132","0.455705553","0.302370727","-0.144644789","0.196411958","0.222337097","-0.943963191","D"
"1.71E+18","17.30170288","-7.663730145","-3.554023266","-3.213173866","0.261996329","0.54773432","-0.794572294","-0.109011739","0.449854851","0.313050687","-0.148235436","0.181833009","0.263914042","-0.935581401","D"
"1.71E+18","17.31172266","-7.623378277","-3.698043108","-3.351300716","0.21460411","0.61506331","-0.758710921","-0.071156278","0.46028471","0.303022504","-0.15168937","0.165968689","0.305121175","-0.925389577","D"
"1.71E+18","17.32174268","-7.628352642","-3.78010726","-3.470818281","0.164831877","0.678040981","-0.716303647","-0.095511243","0.404280305","0.245325923","-0.155260677","0.149045682","0.345880859","-0.913261187","D"
"1.71E+18","17.3317627","-7.386668682","-3.86555171","-3.655692816","0.113047428","0.735120893","-0.668444157","-0.122752085","0.29243654","0.281832278","-0.159146061","0.131059119","0.385488563","-0.899385726","D"
"1.71E+18","17.34178271","-7.370000839","-3.867600441","-3.819728613","0.059550434","0.785699308","-0.61573571","-0.161082476","0.258276641","0.305585623","-0.163507132","0.112084619","0.423756036","-0.883817529","D"
"1.71E+18","17.35180249","-7.316978455","-3.778313875","-4.024684906","0.005373992","0.830378473","-0.557174027","-0.203494176","0.361516178","0.346099257","-0.168415162","0.092798233","0.461304107","-0.86615444","D"
"1.71E+18","17.36182251","-6.75553751","-3.761466265","-4.254386425","-0.049847331","0.866684973","-0.496359378","-0.210559234","0.314864218","0.408346772","-0.174216456","0.07268155","0.496525631","-0.847247629","D"
"1.71E+18","17.37184277","-6.344715595","-3.665530205","-4.415328026","-0.10549657","0.89380455","-0.43587175","-0.209429651","0.307687879","0.391239882","-0.180815262","0.051734504","0.528571351","-0.827793433","D"
"1.71E+18","17.38186255","-6.394155502","-3.459476709","-4.573194981","-0.160697564","0.913508058","-0.373737335","-0.251030445","0.426549435","0.385776639","-0.18820434","0.030736164","0.558736629","-0.807123298","D"
"1.71E+18","17.39188257","-6.572345734","-3.276007891","-4.77811718","-0.215299696","0.926900327","-0.30741173","-0.285905838","0.352457643","0.476830214","-0.196464883","0.010131782","0.588380386","-0.784287936","D"
"1.71E+18","17.40190283","-6.332691669","-3.146233082","-5.080105782","-0.270010054","0.932689071","-0.239136025","-0.26621443","0.102680922","0.557114005","-0.205854001","-0.01060209","0.616700562","-0.759731782","D"
"1.71E+18","17.41192261","-5.230535507","-3.188531637","-5.404444695","-0.325496465","0.929109216","-0.175522849","-0.289264977","0.057234228","0.51124686","-0.21617838","-0.03280617","0.641219411","-0.735546341","D"
"1.71E+18","17.42194263","-4.349416733","-3.185299397","-5.597194672","-0.381138057","0.916680455","-0.120128594","-0.33953464","0.219000757","0.531139493","-0.2267545","-0.057104369","0.660813736","-0.713194767","D"
"1.71E+18","17.43196265","-3.735776424","-3.095579147","-5.905566216","-0.436334878","0.897006214","-0.070654765","-0.43237862","0.267208993","0.434973776","-0.237874912","-0.082688012","0.676635285","-0.691912635","D"
"1.71E+18","17.44198267","-3.264255762","-3.180304289","-6.084870815","-0.491107702","0.87073487","-0.025185322","-0.537014365","0.180611014","0.424080729","-0.249336622","-0.109730529","0.689468309","-0.671136408","D"
"1.71E+18","17.45200269","-2.755985975","-3.206970453","-6.185171604","-0.543761015","0.839058995","0.017448192","-0.528382778","0.296347678","0.634300709","-0.260366487","-0.137797999","0.699811266","-0.650757583","D"
"1.71E+18","17.46202271","-1.882580996","-3.121245623","-6.286396503","-0.59397155","0.80262208","0.05473493","-0.547416508","0.541555226","0.569059849","-0.271008935","-0.166895769","0.706762525","-0.631812352","D"
"1.71E+18","17.47204272","-1.148219943","-3.122915983","-6.291655064","-0.641114473","0.762648225","0.085674286","-0.625883877","0.618867278","0.357990384","-0.280969967","-0.196867362","0.709986187","-0.614994968","D"
"1.71E+18","17.4820625","-0.610553741","-3.317892075","-6.214010715","-0.684433281","0.720164061","0.11364489","-0.625686467","0.571767151","0.45932281","-0.289498098","-0.227689174","0.710619509","-0.599473575","D"
"1.71E+18","17.49208252","-0.073605627","-3.299614668","-6.13267231","-0.723311126","0.676261187","0.139614105","-0.614213407","0.49010545","0.68577981","-0.296367689","-0.258951228","0.709049584","-0.585114751","N"
"1.71E+18","17.50210254","1.046257377","-3.288141251","-6.122772694","-0.75856477","0.631381571","0.161051035","-0.824489057","0.515682757","0.488515854","-0.301931381","-0.290854899","0.704222229","-0.572985333","N"
"1.71E+18","20.83876221","-0.397216439","-0.772329152","0.061352994","0.003831436","-0.970887303","-0.239507169","-0.102830499","0.189041972","0.570592403","0.253018278","0.200489645","-0.583138338","-0.745476785","N"
"1.71E+18","20.84878223","-0.595065117","-0.83158958","-0.068725377","0.001923412","-0.969678938","-0.244375139","-0.156830668","0.05459404","0.566778123","0.251161142","0.196872975","-0.582282974","-0.74773372","N"
"1.71E+18","20.85880225","-0.771620989","-0.864474237","-0.223778084","0.001205408","-0.967985272","-0.251004547","-0.183395386","0.073865891","0.580045104","0.248809993","0.193244136","-0.580650007","-0.750730301","N"
"1.71E+18","20.86882251","-1.008227587","-0.843047798","-0.404870361","0.002079855","-0.965728641","-0.259546191","-0.183125421","0.148757696","0.580560684","0.245978182","0.189844037","-0.578088353","-0.754498543","D"
"1.71E+18","20.87884229","-1.37274003","-0.798487782","-0.574747264","0.004617045","-0.962551117","-0.271061391","-0.153497055","0.133098423","0.615345478","0.242866557","0.186676396","-0.57412649","-0.759306745","D"
"1.71E+18","20.8888623","-1.767478585","-0.758580029","-0.753924251","0.008842781","-0.958131969","-0.286190897","-0.121666282","0.11778456","0.68786329","0.239555399","0.183715443","-0.568465644","-0.765316199","D"
"1.71E+18","20.89888232","-2.186172485","-0.694696009","-0.993473172","0.015026258","-0.952167332","-0.305207551","-0.099590488","0.151187718","0.747559905","0.235945906","0.181020611","-0.560916893","-0.772614638","D"
"1.71E+18","20.90890234","-2.602880001","-0.633092582","-1.257803202","0.023584552","-0.944335878","-0.328136653","-0.091348872","0.16709888","0.787578821","0.231892713","0.178753544","-0.551342759","-0.781213292","D"
"1.71E+18","20.91892236","-2.931555986","-0.549941957","-1.58525908","0.034918919","-0.934442163","-0.354399055","-0.09085767","0.175012112","0.829771399","0.227156627","0.177114521","-0.539843414","-0.79094852","D"
"1.71E+18","20.92894214","-3.182556391","-0.457902282","-1.939690948","0.049455218","-0.922385693","-0.383091599","-0.093064845","0.217017472","0.900349259","0.221485657","0.176370218","-0.526638159","-0.801554879","D"
"1.71E+18","20.93896216","-3.437911034","-0.3625696","-2.277962208","0.067149967","-0.9079445","-0.413675964","-0.095531337","0.259934187","0.959772825","0.214809139","0.176572532","-0.51184388","-0.812831565","D"
"1.71E+18","20.94898218","-3.689138174","-0.247276306","-2.603815794","0.087871253","-0.890731454","-0.445955396","-0.110835746","0.324157298","0.997896314","0.207167398","0.1777331","-0.495412193","-0.824657197","D"
"1.71E+18","20.9590022","-4.02297163","-0.148556158","-2.890192509","0.11122027","-0.870108008","-0.480148077","-0.158812433","0.393759072","1.024200201","0.198695904","0.179698173","-0.477110608","-0.83701495","D"
"1.71E+18","20.96902222","-4.433541775","-0.036265299","-3.134778023","0.136726111","-0.845289528","-0.51651895","-0.207648978","0.526960552","1.048745513","0.189549264","0.182277642","-0.456634848","-0.849900464","D"
"1.71E+18","20.97904175","-4.902348995","0.099195912","-3.35877943","0.163947374","-0.815131426","-0.555591822","-0.233527467","0.638724446","1.058109522","0.180024785","0.185324364","-0.433427009","-0.863358109","D"
"1.71E+18","20.98906177","-5.318466187","0.207808137","-3.588970184","0.192536265","-0.779299676","-0.596340477","-0.263306558","0.723849177","1.018047571","0.170086958","0.188816369","-0.407649532","-0.8770638","D"
"1.71E+18","20.99908179","-5.652752399","0.291972876","-3.728925467","0.221903265","-0.737876713","-0.637414396","-0.282434851","0.819755256","0.963662565","0.159613581","0.192626789","-0.379720576","-0.890635171","D"
"1.71E+18","21.00910181","-5.977021217","0.355246633","-3.874912262","0.251348138","-0.690563738","-0.678193212","-0.297643274","0.954372883","0.954957128","0.148757328","0.196586756","-0.349652749","-0.903862882","D"
"1.71E+18","21.01912183","-6.30238533","0.327452689","-3.943609238","0.279780716","-0.637209177","-0.71811378","-0.303523391","1.043977976","0.954029918","0.13759751","0.200289702","-0.317532922","-0.916582841","D"
"1.71E+18","21.02914185","-6.622768879","0.243269086","-4.009764194","0.30614844","-0.577778578","-0.756601036","-0.294338137","1.074787855","0.927636802","0.126168324","0.2033476","-0.283459387","-0.928645436","D"
"1.71E+18","21.03916187","-6.885969162","0.079766177","-4.030942917","0.329405278","-0.512480855","-0.793004155","-0.307386816","1.094344139","0.871388555","0.114485564","0.205396448","-0.247609002","-0.939891084","D"
"1.71E+18","21.04918164","-7.143149853","-0.113927126","-4.0327878","0.348548919","-0.441789836","-0.826641083","-0.31627658","1.075136423","0.820903778","0.102630212","0.206124334","-0.210219466","-0.950151451","D"
"1.71E+18","21.05920166","-7.416248798","-0.361641169","-4.03453207","0.362902731","-0.365889788","-0.856986761","-0.31817922","1.014739275","0.83028388","0.090625399","0.205330485","-0.171306778","-0.959312544","D"
"1.71E+18","21.06922168","-7.641656399","-0.638393342","-4.027121067","0.371712714","-0.285407811","-0.883386731","-0.325509101","0.977515936","0.804056287","0.078499001","0.202791783","-0.13108062","-0.967228821","D"
"1.71E+18","21.0792417","-7.808942795","-0.912178159","-4.013948917","0.374581724","-0.201003149","-0.905144334","-0.32486859","0.938933492","0.763039231","0.066303621","0.198448815","-0.089698892","-0.973743381","D"
"1.71E+18","21.08926172","-7.971977711","-1.212327123","-4.053386211","0.371183932","-0.113686152","-0.921573639","-0.289198458","0.882210374","0.71692276","0.053958572","0.192246664","-0.047480528","-0.978711149","D"
"1.71E+18","21.09928174","-8.028262138","-1.533602834","-4.098496914","0.361288518","-0.024297493","-0.932137489","-0.253942937","0.841573536","0.673592508","0.041319995","0.184146397","-0.004622943","-0.982019114","D"
"1.71E+18","21.10930151","-8.127614021","-1.885590076","-4.149388313","0.344392806","0.065803871","-0.936516643","-0.237291396","0.787910163","0.62038511","0.028379539","0.173958968","0.038470027","-0.983591951","D"
"1.71E+18","21.11932178","-8.345412254","-2.169173241","-4.204327106","0.320707053","0.157130212","-0.934054136","-0.218534231","0.775029302","0.576845884","0.015381148","0.161794831","0.082434043","-0.983255138","D"
"1.71E+18","21.1293418","-8.441740036","-2.455174923","-4.206183434","0.290594846","0.248145357","-0.924109578","-0.209051907","0.742302716","0.507285297","0.002371596","0.147828806","0.126853636","-0.980841158","D"
"1.71E+18","21.13936182","-8.612216949","-2.689665556","-4.144458294","0.254709959","0.337869465","-0.906072378","-0.216105253","0.672277689","0.410970449","-0.01018391","0.132253236","0.171676751","-0.976182689","D"
"1.71E+18","21.14938184","-8.705442429","-2.898748398","-4.074825287","0.213970825","0.425124764","-0.879480243","-0.203274444","0.739746571","0.383783221","-0.02211856","0.115336599","0.216696468","-0.96914966","D"
"1.71E+18","21.15940186","-8.723243713","-3.100537539","-4.015077591","0.16913341","0.508217037","-0.844458044","-0.155431062","0.822105289","0.280584753","-0.033428379","0.097217664","0.261380399","-0.959745633","D"
"1.71E+18","21.16942188","-8.680597305","-3.295507431","-3.994079828","0.120801456","0.585942745","-0.801297784","-0.104932368","0.843027651","0.165158927","-0.044171085","0.077944419","0.30541085","-0.947996749","D"
"1.71E+18","21.17944189","-8.488819122","-3.457568407","-4.002839565","0.069605634","0.656591594","-0.751027703","-0.08089719","0.832391679","0.075322807","-0.054565176","0.057592128","0.3480938","-0.934096698","D"
"1.71E+18","21.18946167","-8.128090858","-3.601469994","-4.139472485","0.015956193","0.718730986","-0.695105195","-0.062098831","0.813694","0.027426422","-0.064949121","0.036183021","0.388764964","-0.918332365","D"
"1.71E+18","21.19948169","-7.872106075","-3.692189455","-4.223361969","-0.039677504","0.771509171","-0.634979844","-0.059626762","0.809820294","0.010132551","-0.075564345","0.013791981","0.426989288","-0.900988399","D"
"1.71E+18","21.20950146","-7.699877739","-3.735821962","-4.294921398","-0.096030369","0.815555871","-0.570654809","-0.061196268","0.764354527","0.006781578","-0.086197001","-0.009167436","0.463237037","-0.881985034","D"
"1.71E+18","21.21952173","-7.878622055","-3.670342207","-4.453756809","-0.152502373","0.851923585","-0.500968516","-0.070016623","0.702260494","0.057944894","-0.097124674","-0.032337682","0.49846767","-0.860843353","D"
"1.71E+18","21.22954175","-8.12977314","-3.501668453","-4.730690956","-0.209018365","0.880783558","-0.424890369","-0.137676671","0.598907113","0.089883804","-0.109131699","-0.055318485","0.533380426","-0.836980068","D"
"1.71E+18","21.23956177","-8.214448929","-3.345547199","-4.974451542","-0.26566726","0.900689483","-0.343772531","-0.182910711","0.43923068","0.160545111","-0.122468168","-0.078148534","0.567456204","-0.810486231","D"
"1.71E+18","21.24958179","-8.001623154","-3.1102283","-5.279203892","-0.321937501","0.910360932","-0.259999275","-0.182792842","0.384347558","0.249837011","-0.137065958","-0.100723492","0.599879272","-0.781801043","D"
"1.71E+18","21.25960181","-6.90701437","-3.010541916","-5.678803444","-0.37863934","0.907686889","-0.180933416","-0.259086549","0.41489923","0.297220767","-0.152989134","-0.123853115","0.62784847","-0.753034594","D"
"1.71E+18","21.26962183","-5.748109818","-2.956541777","-5.848573685","-0.435165614","0.893381596","-0.111804493","-0.366470218","0.474828243","0.446994424","-0.169044547","-0.148392918","0.649674763","-0.726172309","D"
"1.71E+18","21.27964185","-5.001018524","-2.689015865","-6.176576138","-0.490484625","0.869945526","-0.051186007","-0.518457174","0.585254788","0.317833543","-0.185509112","-0.173489134","0.666564713","-0.700842039","D"
"1.71E+18","21.28966187","-4.105554104","-2.726867199","-6.447916031","-0.545353115","0.838205755","0.001302435","-0.749141693","0.460561514","0.372904301","-0.202508368","-0.199724584","0.67879401","-0.677007706","D"
"1.71E+18","21.29968188","-3.770728827","-2.71654439","-6.609225273","-0.598138273","0.799868464","0.049412552","-0.795172513","0.19010669","0.722072005","-0.219057355","-0.226994942","0.687880493","-0.653687879","D"
"1.71E+18","21.30970166","-3.39115572","-2.660209656","-6.937503815","-0.649054229","0.754914403","0.093985334","-0.89391464","0.322829247","0.606713653","-0.235876603","-0.255050342","0.69422042","-0.630372694","D"
"1.71E+18","21.31972192","-2.903617382","-2.803805113","-6.895672321","-0.696712494","0.704444826","0.135459736","-1.049640775","0.367424071","0.693046927","-0.252164672","-0.283853412","0.697966408","-0.607192859","D"
"1.71E+18","21.3297417","-2.295241356","-2.886116505","-6.838096142","-0.738833785","0.65103209","0.174017832","-1.076016188","0.382216871","0.747262239","-0.266590002","-0.312920828","0.699349318","-0.584740118","D"
"1.71E+18","21.33976172","-0.555000961","-2.999093771","-6.764696598","-0.775813758","0.59658277","0.20543167","-1.268650413","0.878896356","0.723157406","-0.278317831","-0.343212485","0.69636271","-0.565529313","D"
"1.71E+18","21.34978174","1.038406372","-3.254671335","-6.60150671","-0.807261288","0.544019103","0.228851035","-1.439702272","1.174242616","0.707321644","-0.285767724","-0.375498267","0.688060004","-0.55128163","D"
"1.71E+18","21.35980176","2.337768793","-3.625116587","-6.231115818","-0.832454026","0.495434999","0.248122782","-1.446934462","1.094057798","0.540299058","-0.288153424","-0.409334894","0.675652526","-0.541208284","D"
"1.71E+18","21.36982178","3.240039349","-4.062749386","-5.846905231","-0.851221144","0.451603532","0.26735276","-1.334646463","0.787822247","0.528149128","-0.285610649","-0.44393224","0.660757557","-0.533620131","D"
"1.71E+18","21.37984155","4.16105175","-4.536150932","-5.327775478","-0.863485575","0.413783312","0.288403094","-1.175088763","0.559803724","0.613589883","-0.277872806","-0.478892789","0.644098785","-0.527811793","D"
"1.71E+18","21.38986182","5.417762756","-4.998597145","-4.715571404","-0.869267642","0.384416133","0.310802728","-1.070078731","0.634840429","0.536426544","-0.26414069","-0.513881212","0.62556172","-0.524240843","D"
"1.71E+18","21.39988184","6.93073082","-5.567774296","-4.051632404","-0.868691027","0.366244555","0.33352837","-0.984733164","0.895062208","0.507597327","-0.242878612","-0.549111592","0.604351419","-0.523684946","D"
"1.71E+18","21.40990161","7.925203323","-6.085421562","-3.230138302","-0.861751139","0.360316724","0.357151985","-0.840794265","0.959599078","0.643290758","-0.213963721","-0.583870137","0.581095222","-0.525017905","D"
"1.71E+18","21.41992188","8.41941452","-6.415105343","-2.258126974","-0.848589122","0.367189735","0.380878747","-0.699399829","0.971860528","0.76644516","-0.17864257","-0.616268674","0.557361907","-0.526922789","D"
"1.71E+18","21.42994189","8.300992012","-6.637050152","-1.356166244","-0.829637706","0.384924829","0.404394507","-0.596067488","0.993020236","0.885263443","-0.139077148","-0.645158491","0.534759546","-0.527693644","D"
"1.71E+18","21.43996167","8.423182487","-6.692419052","-0.524267077","-0.805531025","0.412012279","0.425870717","-0.546550214","1.007894278","1.006273746","-0.096523421","-0.670163333","0.513630666","-0.527017994","D"
"1.71E+18","21.44998193","9.014772415","-6.828541756","0.04188795","-0.777165055","0.448097259","0.441841394","-0.562251568","0.937110901","1.043083191","-0.050388219","-0.691756145","0.49233539","-0.525871165","D"
"1.71E+18","21.46000171","9.517642975","-6.999738216","0.615279078","-0.744565964","0.492033511","0.451137394","-0.554552078","0.929872036","1.157932758","-0.000320834","-0.710363056","0.4700564","-0.523861949","D"
"1.71E+18","21.47002173","10.59928131","-7.142978191","1.288458943","-0.707455039","0.54449451","0.450591892","-0.52731663","1.084915161","1.155182123","0.054577901","-0.725315896","0.44633261","-0.521272763","D"
"1.71E+18","21.4800415","11.61933804","-7.286266804","1.940220594","-0.666000962","0.605186164","0.436111152","-0.595336378","1.112694263","1.131317735","0.115270771","-0.73589446","0.420136787","-0.518321555","D"
"1.71E+18","21.49006177","12.17537117","-7.301502228","2.6714077","-0.620263636","0.670418262","0.407201648","-0.694601595","1.152198553","1.213205814","0.180154219","-0.741300352","0.39252339","-0.513754717","D"
"1.71E+18","21.50008179","12.6454134","-7.116410255","3.441022158","-0.570788383","0.736672044","0.362650692","-0.788266301","1.198722363","1.241429687","0.247829478","-0.740684271","0.364296805","-0.507203518","D"
"1.71E+18","21.51010156","12.63735008","-6.919542789","4.253348351","-0.517455041","0.800408006","0.302634358","-0.970383644","1.172873974","1.184960485","0.316951633","-0.733471278","0.336655708","-0.498221429","D"
"1.71E+18","21.52012183","12.19284344","-6.222462654","4.995065212","-0.461193532","0.856495976","0.231766045","-1.172198772","1.238123894","1.167632937","0.384303114","-0.720358809","0.311393976","-0.486238861","D"
"1.71E+18","21.53014185","11.34372807","-5.522324085","5.593021393","-0.403159499","0.902185917","0.153373778","-1.372322679","1.105962515","1.129539609","0.44786018","-0.701989847","0.28965003","-0.471947652","D"
"1.71E+18","21.54016162","10.4749136","-4.768308163","6.228047848","-0.342725962","0.936675787","0.071956374","-1.466478109","0.787445426","1.000431538","0.506615514","-0.679495758","0.272513671","-0.455370963","D"
"1.71E+18","21.55018164","9.632917404","-4.082275391","6.727410316","-0.279555976","0.960080922","-0.009662181","-1.460525751","0.694399178","0.962817848","0.56055654","-0.653911543","0.259939613","-0.436586323","D"
"1.71E+18","21.5602019","9.294184685","-3.464189053","7.001658916","-0.214758024","0.972355843","-0.091670714","-1.456582904","0.868876696","0.836925387","0.610345792","-0.62553553","0.250738795","-0.41630949","D"
"1.71E+18","21.57022192","9.242800713","-2.913476229","7.109459877","-0.150146708","0.972838044","-0.176188469","-1.503768682","1.053422451","0.76789391","0.656922923","-0.593855881","0.243394662","-0.395659779","D"
"1.71E+18","21.5802417","9.327171326","-2.501146555","7.313971996","-0.086156152","0.960971355","-0.26289016","-1.524897218","1.221706867","0.879818439","0.700864299","-0.558856295","0.237138284","-0.374478801","D"
"1.71E+18","21.59026196","9.404614449","-2.096833229","7.473049164","-0.022846157","0.936194181","-0.350739956","-1.453884125","1.354912996","0.97870028","0.742379671","-0.520503088","0.231746741","-0.352480421","D"
"1.71E+18","21.60028174","9.340507507","-1.691170216","7.567901611","0.038933709","0.898406804","-0.43743512","-1.407524943","1.300461054","1.09872067","0.780990117","-0.479191128","0.227284621","-0.329806164","D"
"1.71E+18","21.61030151","8.947512627","-1.252093196","7.582575321","0.098309264","0.849358141","-0.518580973","-1.391430497","1.178107738","1.219157815","0.815712898","-0.436398638","0.224200225","-0.3064363","D"
"1.71E+18","21.62032178","8.356010437","-0.775777757","7.610748768","0.155197084","0.791511238","-0.591120958","-1.322204471","1.134071827","1.221217513","0.846072461","-0.393342646","0.222982266","-0.282350809","D"
"1.71E+18","21.6303418","8.026486397","-0.34852314","7.618997097","0.209715113","0.726217687","-0.654696524","-1.227934003","1.073831201","1.145342946","0.872305692","-0.350173718","0.223674121","-0.257742501","D"
"1.71E+18","21.64036182","7.651386261","0.021858405","7.614804745","0.261462957","0.655119359","-0.708841264","-1.148303747","1.156968713","1.037973404","0.894616311","-0.307386887","0.226036904","-0.232556504","D"
"1.71E+18","21.65038159","7.452190876","0.329834074","7.608799934","0.309749424","0.577576041","-0.755288899","-1.049556494","1.350250006","1.004220843","0.913687863","-0.264132189","0.229324518","-0.206927885","D"
"1.71E+18","21.66040186","7.217055798","0.788546443","7.504028797","0.354827911","0.495507091","-0.79282403","-1.075805545","1.351920366","0.945961297","0.929285153","-0.220972497","0.234006705","-0.181221661","D"
"1.71E+18","21.67042188","6.72097826","1.127638817","7.393895626","0.396470934","0.4109779","-0.820918977","-1.16002059","1.304323673","0.925136626","0.941414044","-0.178604859","0.240085","-0.155560837","D"
"1.71E+18","21.68044165","6.368742943","1.346569657","7.278408051","0.43386814","0.326014757","-0.839924335","-1.15690577","1.265827894","0.892551959","0.950333902","-0.137799516","0.247081232","-0.129721827","D"
"1.71E+18","21.69046191","6.171909809","1.539476991","7.106523514","0.466586202","0.240348697","-0.85119319","-1.126254082","1.175422788","0.858334363","0.956432492","-0.097943587","0.254578956","-0.104085281","D"
"1.71E+18","21.70048193","5.986351967","1.72125864","6.931794643","0.494451553","0.154645219","-0.855337679","-1.076253772","1.114229918","0.76988852","0.959922001","-0.058994732","0.262394315","-0.078859447","D"
"1.71E+18","21.71050171","5.82217741","1.914348483","6.817960262","0.517659962","0.069020078","-0.852798045","-1.047765493","1.083644032","0.704269052","0.96097644","-0.020691249","0.270504812","-0.054070148","D"
"1.71E+18","21.72052197","5.588703632","2.113140345","6.635725498","0.536692858","-0.014897861","-0.843646169","-1.082942128","1.026006222","0.657794178","0.959662295","0.016348689","0.279122969","-0.029522077","D"
"1.71E+18","21.73054175","5.473704815","2.181082487","6.49696064","0.551037431","-0.097076893","-0.828814805","-1.073879719","1.083084583","0.66076982","0.956230745","0.05242157","0.287827364","-0.005519526","D"
"1.71E+18","21.74056177","5.382457256","2.192865372","6.382223129","0.560176015","-0.177538708","-0.809124768","-1.003993034","1.062884092","0.71635139","0.950912585","0.087712459","0.296216396","0.018103219","D"
"1.71E+18","21.75058154","5.206073284","2.159109831","6.151481152","0.563971579","-0.255377769","-0.785314143","-0.967932701","1.0128088","0.782613397","0.943912808","0.122050623","0.304050298","0.041058142","D"
"1.71E+18","21.76060181","4.879247189","2.107435703","5.748653889","0.563055873","-0.328009754","-0.758536518","-0.99013406","0.941718221","0.907660842","0.935587674","0.154401866","0.311274463","0.062801161","D"
"1.71E+18","21.77062183","4.511276722","2.121572971","5.460471153","0.55855912","-0.394589752","-0.729596257","-1.036021709","0.742856264","1.009778261","0.926210473","0.184417066","0.318107242","0.083260761","D"
"1.71E+18","21.7806416","4.040154457","2.1366961","5.083724022","0.551385164","-0.454459727","-0.699600458","-1.113045931","0.470588177","1.044540763","0.916081377","0.211559345","0.324718983","0.102932955","D"
"1.71E+18","21.79066187","3.851934671","2.082099915","4.653569221","0.542419255","-0.508152723","-0.669000924","-1.229140997","0.409290969","1.027857304","0.905462405","0.236360815","0.331108915","0.120988995","D"
"1.71E+18","21.80068188","3.598902702","2.040723562","4.29981041","0.53207463","-0.556712151","-0.637940645","-1.327682972","0.358851314","0.97834909","0.894467247","0.259359186","0.337286948","0.137472757","D"
"1.71E+18","21.81070166","3.468160152","1.937795639","3.909294128","0.520816445","-0.600155175","-0.607094765","-1.379275799","0.35122323","0.961648166","0.883360506","0.280498743","0.343180828","0.152386357","D"
"1.71E+18","21.82072168","3.368956566","1.876520038","3.660679102","0.50867486","-0.639838696","-0.576069772","-1.360069513","0.357566237","0.858830571","0.872091522","0.30053046","0.348778657","0.165805064","D"
"1.71E+18","21.83074194","3.215569019","1.833821297","3.48038125","0.4954983","-0.676357985","-0.544996858","-1.292357922","0.336102128","0.70788455","0.86061642","0.31952923","0.35412235","0.178432365","D"
"1.71E+18","21.84076172","3.242132187","1.720586896","3.187113047","0.481848389","-0.709621549","-0.514061749","-1.211569309","0.468288481","0.609703958","0.849108863","0.337545228","0.35921073","0.189855505","D"
"1.71E+18","21.85078174","2.938331366","1.631166458","2.965742826","0.467793047","-0.739838719","-0.483537495","-1.11217165","0.457322121","0.502717912","0.837678654","0.354634972","0.363957814","0.200158393","D"
"1.71E+18","21.860802","2.768845797","1.543831825","2.772505045","0.453704119","-0.76639384","-0.454745054","-1.005416155","0.304144025","0.523119807","0.826666291","0.370090386","0.368321308","0.209750786","D"
"1.71E+18","22.20148218","-4.354523659","-1.1971277","-4.231771469","0.513298512","-0.329082847","-0.792609096","-0.478615165","0.276928246","0.305838585","0.943898161","0.152313171","0.283718441","0.073218015","D"
"1.71E+18","22.2115022","-4.341005325","-1.135382056","-4.385519981","0.516876519","-0.271857202","-0.811746538","-0.470642269","0.425253719","0.273523331","0.949997882","0.12596945","0.279747086","0.058116396","D"
"1.71E+18","22.22152222","-4.322763443","-1.091962218","-4.517508507","0.518564522","-0.213179946","-0.828036964","-0.445459545","0.469725907","0.245959997","0.955109457","0.099398623","0.275864889","0.042243183","D"
"1.71E+18","22.23154248","-4.39411974","-1.049281359","-4.600365639","0.517958581","-0.153089046","-0.841595352","-0.406630337","0.44224304","0.214901686","0.959232821","0.072458616","0.27194133","0.025887352","D"
"1.71E+18","22.24156201","-4.513374329","-0.97585696","-4.684202671","0.515027761","-0.091175862","-0.852310658","-0.385083795","0.402455091","0.191009998","0.962324952","0.044788542","0.268027366","0.009278154","D"
"1.71E+18","22.25158203","-4.451617718","-0.908644378","-4.754388332","0.509795845","-0.028387392","-0.859826982","-0.380508006","0.336813271","0.184091508","0.96428989","0.01681716","0.26420391","-0.007656668","D"
"1.71E+18","22.26160229","-4.363081455","-0.905412138","-4.854078293","0.501833856","0.033947401","-0.864297628","-0.371233761","0.326129466","0.179910481","0.965151785","-0.010812923","0.260258077","-0.025119638","D"
"1.71E+18","22.27162207","-4.504822731","-0.857163906","-4.90075016","0.490936428","0.09661077","-0.865822017","-0.318969786","0.303901911","0.151344538","0.96492012","-0.038675162","0.256111713","-0.042899018","D"
"1.71E+18","22.28164209","-4.67718792","-0.757271767","-4.898164749","0.477634728","0.160240516","-0.863821805","-0.238041103","0.193793893","0.138998866","0.963457655","-0.067327805","0.252103277","-0.06050207","D"
"1.71E+18","22.29166211","-4.601719379","-0.666718185","-4.904328823","0.46207422","0.223490059","-0.858218908","-0.182075322","0.173772499","0.124179602","0.960740869","-0.09614938","0.248285835","-0.078016509","D"
"1.71E+18","22.30168237","-4.468732834","-0.574686825","-4.901629448","0.444286853","0.284554958","-0.84949261","-0.145580679","0.325827152","0.090016961","0.956872263","-0.12425191","0.244571363","-0.095613264","D"
"1.71E+18","22.31170215","-4.47362566","-0.449605912","-4.874651432","0.424530447","0.343504131","-0.837722421","-0.106094658","0.45625481","0.053085029","0.95186039","-0.151760967","0.241054764","-0.113239035","D"
"1.71E+18","22.32172217","-4.489665031","-0.308514833","-4.799517155","0.403353691","0.400961936","-0.822517693","-0.046664119","0.381905526","0.051826835","0.94563219","-0.179154283","0.238001883","-0.130532195","D"
"1.71E+18","22.33174243","-4.494333267","-0.224634036","-4.737932205","0.380696774","0.456265062","-0.804296136","0.004892945","0.332873762","0.047826409","0.938297112","-0.206158775","0.235266863","-0.147468065","D"
"1.71E+18","22.34176221","-4.586124897","-0.112020619","-4.650321484","0.356584936","0.509779215","-0.782925606","0.026990592","0.336824238","0.000805855","0.929832148","-0.233072852","0.23283954","-0.163936805","D"
"1.71E+18","22.35178223","-4.57017374","0.03013093","-4.560622215","0.331593335","0.561029077","-0.758480251","0.02556926","0.244223058","-0.020221472","0.920257788","-0.259676452","0.230928584","-0.179905293","D"
"1.71E+18","22.36180225","-4.542187691","0.146892548","-4.516394615","0.305629075","0.609562516","-0.731453657","0.005070508","0.242396772","-0.018408954","0.909659825","-0.285727506","0.229418757","-0.19556564","D"
"1.71E+18","22.37182202","-4.581165314","0.29772678","-4.467825413","0.278675795","0.655480385","-0.701915562","-0.016529679","0.227530599","-0.046894193","0.898013966","-0.311310674","0.228315316","-0.211018951","D"
"1.71E+18","22.38184204","-4.45591259","0.434282184","-4.375078201","0.25122568","0.698398232","-0.67016834","-0.024312139","0.118648946","-0.035108089","0.885389887","-0.336209201","0.227770041","-0.226205758","D"
"1.71E+18","22.39186206","-4.240580082","0.477060288","-4.333893776","0.222971842","0.737191141","-0.637834489","-0.047694027","0.180365682","-0.016965866","0.872205155","-0.359744462","0.227303039","-0.241196106","D"
"1.71E+18","22.40188232","-4.348332882","0.528779507","-4.326995373","0.193289667","0.772821724","-0.604471564","-0.060736492","0.269140065","-0.013356745","0.858294888","-0.382565447","0.226733113","-0.256058242","D"
"1.71E+18","22.4119021","-4.531569958","0.668202877","-4.250049591","0.162773117","0.806606054","-0.568235755","-0.028587252","0.094089925","-0.010057032","0.843180097","-0.405605636","0.22664113","-0.270491134","D"
"1.71E+18","22.42192212","-4.527406216","0.81392014","-4.10538578","0.132413372","0.837845683","-0.529605031","-0.058148742","-0.06950444","0.032031238","0.827003114","-0.428375848","0.227357885","-0.284374097","D"
"1.71E+18","22.43194312","-4.261977673","0.835175872","-4.018352509","0.102041431","0.865036726","-0.491222143","-0.190435514","0.137893081","0.0366171","0.810494052","-0.449775132","0.228235109","-0.297843244","D"
"1.71E+18","22.44196313","-4.326289654","0.887487292","-3.929646969","0.071090557","0.888742507","-0.452860802","-0.265914708","0.257955551","0.017512411","0.793583503","-0.470237542","0.229011477","-0.310894892","D"
"1.71E+18","22.45198218","-4.451694489","1.03973937","-3.852287054","0.040234916","0.910045505","-0.412551016","-0.241116807","0.115299404","0.093261003","0.775689551","-0.490531808","0.230440961","-0.323390216","D"
"1.71E+18","22.46200317","-4.001881599","1.074924231","-3.81740284","0.00906593","0.927705884","-0.373202294","-0.200792551","0.185468733","0.153124869","0.757482465","-0.50952108","0.231920513","-0.335889453","D"
"1.71E+18","22.47202222","-3.739994764","1.053621292","-3.711197615","-0.022452176","0.941192269","-0.337124914","-0.146126851","0.37219286","0.113339603","0.739777864","-0.526571935","0.23272203","-0.348269025","D"
"1.71E+18","22.48204321","-3.681139946","1.092432737","-3.611943483","-0.053768046","0.951613903","-0.302556396","-0.092594206","0.359039962","0.059117794","0.722150418","-0.542454683","0.233376788","-0.360246071","D"
"1.71E+18","22.49206299","-3.830188274","1.192299366","-3.513358593","-0.084593795","0.959862828","-0.267409056","-0.10933011","0.179022908","0.057783931","0.703938259","-0.557932811","0.23453453","-0.371719897","D"
"1.71E+18","22.50208325","-3.940254211","1.283791184","-3.437322378","-0.11503309","0.966120422","-0.231038406","-0.166155815","0.140050292","0.102879956","0.684866384","-0.573247129","0.236365244","-0.382723512","D"
"1.71E+18","22.51210327","-3.94224906","1.342651606","-3.314522028","-0.145050392","0.9701069","-0.194559455","-0.213714227","0.16230911","0.092264622","0.66528095","-0.588033519","0.238614442","-0.393295339","D"
"1.71E+18","22.52212329","-3.795130968","1.46777451","-3.100208282","-0.173927203","0.971861541","-0.158854619","-0.199363768","0.162156522","0.180247605","0.645540281","-0.601915106","0.241393654","-0.4033674","D"
"1.71E+18","22.53214331","-3.410295725","1.400446653","-3.020024776","-0.201416358","0.971289635","-0.126602411","-0.141707987","0.347771764","0.275436819","0.626631279","-0.614095274","0.244102","-0.413079432","D"
"1.71E+18","22.54216309","-3.21891284","1.423805833","-3.012709618","-0.229273796","0.968460619","-0.097559519","-0.067601189","0.522414744","0.111552","0.608333073","-0.625086887","0.245940285","-0.422742037","D"
"1.71E+18","22.55218311","-3.348004818","1.539711952","-2.874468088","-0.256365955","0.964089334","-0.069344737","-0.130123943","0.359076798","0.149789214","0.589895779","-0.635420199","0.248130617","-0.43208286","D"
"1.71E+18","22.56220313","-3.318185568","1.585500836","-2.923304319","-0.283391088","0.958106458","-0.041495815","-0.157191187","0.259239852","0.215095222","0.570907479","-0.645294855","0.250692325","-0.441376001","D"
"1.71E+18","22.57222314","-3.383017302","1.528741956","-2.76840663","-0.31019491","0.950568378","-0.01411484","-0.118287116","0.258965492","0.10868901","0.551681245","-0.654826227","0.253269013","-0.45022818","D"
"1.71E+18","22.58224316","-3.57028389","1.544102907","-2.611834764","-0.335587412","0.941906273","0.013930281","-0.057616323","0.144290805","0.069977999","0.532141542","-0.664214249","0.256485032","-0.458105269","D"
"1.71E+18","22.59226294","-3.516022205","1.577567101","-2.494324446","-0.35994941","0.932028949","0.041940533","-0.12619558","0.094704628","0.151632667","0.512295311","-0.673224276","0.260267824","-0.465385323","D"
"1.71E+18","22.6022832","-3.297361374","1.575223804","-2.409184694","-0.383536279","0.921035349","0.067780383","-0.173363745","0.164505601","0.198424578","0.492890601","-0.681336059","0.263953344","-0.472407498","D"
"1.71E+18","22.61230322","-2.896052837","1.572494864","-2.382229328","-0.406708568","0.909117579","0.089964844","-0.131545186","0.248078585","0.194276094","0.474465247","-0.688273271","0.266950046","-0.479479333","D"
"1.71E+18","22.62232324","-2.597115278","1.551077843","-2.307344675","-0.429503977","0.896553934","0.108247779","-0.081192404","0.365531147","0.20718205","0.457187185","-0.694052933","0.269099265","-0.486678622","D"
"1.71E+18","22.63234326","-2.42218852","1.550454378","-2.234976768","-0.451555014","0.88362807","0.123692155","-0.028761148","0.527214885","0.205165505","0.440798975","-0.698938711","0.270796522","-0.493812009","D"
"1.71E+18","22.64236328","-2.508809328","1.605608582","-2.141081333","-0.472883195","0.87027061","0.137879655","0.000150621","0.467360735","0.129515529","0.424618833","-0.703304876","0.272584082","-0.500758549","D"
"1.71E+18","22.6523833","-2.887966633","1.732681632","-1.992062449","-0.493197381","0.856336892","0.153113216","-0.045681953","0.251786947","0.067773208","0.40758076","-0.707544227","0.275568088","-0.507268569","D"
"1.71E+18","22.66240332","-3.181282282","1.849066615","-1.866159678","-0.512494743","0.841699421","0.169975623","-0.116182625","0.12714231","0.051689029","0.389334995","-0.711717914","0.280081094","-0.513254961","D"
"1.71E+18","22.6724231","-3.142795801","1.935202599","-1.778972626","-0.531115949","0.826461315","0.18675667","-0.140087783","0.112381697","0.022563592","0.370509832","-0.715471459","0.285445136","-0.518983934","D"
"1.71E+18","22.68244312","-2.799187183","1.890762687","-1.675479531","-0.549028933","0.811349034","0.200700238","-0.124143124","0.139502645","0.064894468","0.352560796","-0.718311726","0.290479574","-0.524739011","D"
"1.71E+18","22.69246289","-2.387468338","1.797425985","-1.629265428","-0.566095114","0.796775639","0.211388886","-0.049871743","0.271736443","0.143545985","0.336118219","-0.720343253","0.29461846","-0.530405723","D"
"1.71E+18","22.70248315","-2.109280348","1.711880922","-1.652587771","-0.582873344","0.782513201","0.218934253","0.014880061","0.419345498","0.155303031","0.321077926","-0.721766304","0.297523994","-0.536136211","D"
"1.71E+18","22.71250317","-2.021196604","1.646270275","-1.651209831","-0.599450827","0.768145382","0.224970862","0.046273828","0.403043151","0.193410069","0.306664567","-0.722944801","0.29972695","-0.54173021","D"
"1.71E+18","22.72252319","-2.087072849","1.643901825","-1.627237678","-0.615761399","0.753440142","0.230577931","0.051857591","0.307106853","0.161618933","0.292260858","-0.724011758","0.30182104","-0.547078373","D"
"1.71E+18","22.73254321","-2.201421499","1.661192179","-1.513495922","-0.631382763","0.738610566","0.236241862","0.018620431","0.23132962","0.115641311","0.277664168","-0.724906722","0.304353702","-0.552070356","D"
"1.71E+18","22.74256323","-2.297008514","1.692779422","-1.406047225","-0.64608866","0.723861039","0.242063671","-0.023558557","0.254425764","0.116045117","0.262835693","-0.725545101","0.307597372","-0.556673746","D"
"1.71E+18","22.75258325","-2.251876354","1.715151668","-1.3179214","-0.660064578","0.709336698","0.247298256","-0.054458737","0.292967439","0.086091265","0.248078763","-0.725810162","0.311205294","-0.561077432","D"
"1.71E+18","22.76260303","-2.083542109","1.717866063","-1.199079156","-0.673234046","0.695475042","0.251139104","-0.062758505","0.237035453","0.044896871","0.233906161","-0.725564373","0.314842657","-0.565436591","D"
"1.71E+18","22.77262329","-1.795801401","1.655951023","-1.120887637","-0.685478747","0.682724655","0.252994686","-0.037772596","0.250060439","0.066112608","0.220919539","-0.724798089","0.318064577","-0.569822211","D"
"1.71E+18","22.78264331","-1.615574002","1.576724648","-1.077192664","-0.697052598","0.670773804","0.253339559","-0.007369578","0.35763824","0.066896945","0.20899859","-0.723761721","0.320684825","-0.574151617","D"
"1.71E+18","22.79266309","-1.583620071","1.512423396","-1.021486998","-0.707958937","0.659389257","0.252983302","0.03164351","0.38838619","0.0834122","0.197748379","-0.722593103","0.323033846","-0.578276891","D"
"1.71E+18","22.80268335","-1.683384538","1.42744267","-1.000279427","-0.718307376","0.648019791","0.25319013","0.077041447","0.33267796","0.172560811","0.186493398","-0.721529277","0.325561935","-0.58191519","D"
"1.71E+18","22.81270313","-1.760676622","1.368863225","-0.962739766","-0.728193641","0.636534214","0.254083216","0.079328954","0.263581753","0.172354281","0.175155145","-0.720615443","0.32826055","-0.585046222","D"
"1.71E+18","22.82272314","-1.950693488","1.361720204","-0.897321582","-0.737554014","0.624943674","0.255850554","0.042806149","0.151377738","0.125207365","0.163441497","-0.719725845","0.331541828","-0.587674756","D"
"1.71E+18","22.83274292","-1.937924981","1.367308259","-0.853791952","-0.746494532","0.613412261","0.25782147","0.005893826","0.13353616","0.067679316","0.151545334","-0.718703193","0.335225983","-0.590019938","D"
"1.71E+18","22.84276318","-1.873018861","1.339898229","-0.800138593","-0.755051792","0.602234244","0.25925079","-0.01029855","0.13977021","0.028194517","0.139934416","-0.717481174","0.338889601","-0.592277842","D"
"1.71E+18","22.8527832","-1.67489624","1.306093216","-0.762619436","-0.763153732","0.591650307","0.259897888","0.005722523","0.185068011","0.061864406","0.128936083","-0.716086855","0.342298939","-0.594497087","D"
"1.71E+18","22.86280298","-1.376567841","1.261595607","-0.721085072","-0.770870984","0.581975698","0.258965045","0.014874101","0.192133307","0.044013768","0.119057196","-0.714481076","0.344962762","-0.596944851","D"
"1.71E+18","22.87282324","-1.239827037","1.197728515","-0.660460055","-0.778051853","0.573240101","0.256966621","0.017187417","0.167482734","0.0376046","0.110184339","-0.7127382","0.347113184","-0.599480106","D"
"1.71E+18","22.88284326","-1.202573895","1.132748246","-0.651958466","-0.784770131","0.565025151","0.254721165","0.025523245","0.156593561","0.064523458","0.101879714","-0.71101197","0.349030899","-0.601880491","D"
"1.71E+18","22.89286304","-1.32972014","1.082190871","-0.636194408","-0.791212916","0.556724489","0.253061563","0.020216823","0.138191283","0.095785111","0.093506876","-0.709417161","0.351081295","-0.603925296","D"
"1.71E+18","22.9028833","-1.407634139","1.044518352","-0.618962944","-0.797382295","0.548241735","0.252215326","0.023761749","0.117560267","0.116254061","0.084833618","-0.707914082","0.353504339","-0.605553997","D"
"1.71E+18","22.91290332","-1.36898315","0.995930552","-0.599043548","-0.803298295","0.539810896","0.251627445","0.027861834","0.094405413","0.064092368","0.076217918","-0.706463176","0.355982457","-0.606940874","D"
"1.71E+18","22.92292334","-1.174553752","0.939842701","-0.552712023","-0.808842242","0.531917989","0.250675142","0.033069909","0.133639991","0.031109124","0.068189755","-0.705006757","0.358194147","-0.608286768","D"
"1.71E+18","22.93294312","-1.009524584","0.87927711","-0.50709182","-0.813920796","0.524887264","0.249051824","0.051667809","0.194824159","0.03949216","0.061097831","-0.70353928","0.359942212","-0.60970597","D"
"1.71E+18","22.94296313","-0.887678027","0.840870738","-0.46487698","-0.818594277","0.518565714","0.246969059","0.065725446","0.243031025","0.033442333","0.054743369","-0.702071153","0.361359411","-0.611161955","D"
"1.71E+18","22.95298315","-0.891064763","0.823000371","-0.422444552","-0.822945476","0.51272732","0.244687602","0.061913133","0.200010836","0.021944791","0.048766008","-0.700557064","0.362716975","-0.612599624","D"
"1.71E+18","22.96300293","-0.904345155","0.809558868","-0.376044571","-0.826977849","0.507235885","0.242528483","0.047970712","0.12765193","0.030497342","0.042904046","-0.69898161","0.364264946","-0.613917963","D"
"1.71E+18","22.97302319","-0.973855793","0.798920572","-0.34094891","-0.830729604","0.501992702","0.24060753","0.028788626","0.125387669","0.040169701","0.037041902","-0.697347339","0.366074379","-0.615080691","D"
"1.71E+18","22.98304248","-1.001763582","0.775196135","-0.305501968","-0.834239185","0.496919334","0.238991037","0.021327078","0.157469183","0.055870056","0.031149537","-0.695685533","0.368126553","-0.616063631","D"
"1.71E+18","22.9930625","-1.022428393","0.743157744","-0.274365604","-0.837490797","0.492078304","0.237631142","0.035763323","0.158968568","0.052026659","0.025324841","-0.694013733","0.370351874","-0.616881902","D"
"1.71E+18","23.00308228","-1.019801974","0.699286282","-0.252618253","-0.840497017","0.487427056","0.236601025","0.059262156","0.16357401","0.054674268","0.019611981","-0.692392939","0.372682883","-0.617507108","D"
"1.71E+18","23.01310254","-0.994685709","0.663322389","-0.242040172","-0.843301356","0.482976526","0.235748067","0.068719268","0.165232211","0.050598651","0.01409152","-0.690830113","0.375003724","-0.618002968","D"
"1.71E+18","23.02312256","-0.959309101","0.643117964","-0.249910891","-0.846025109","0.478597999","0.234917328","0.060792327","0.160043508","0.053748757","0.008716769","-0.689318414","0.377225112","-0.618438061","D"
"1.71E+18","23.03314233","-0.921473563","0.615318537","-0.254063547","-0.848717809","0.47424987","0.234020591","0.052361429","0.144433141","0.052173525","0.003510403","-0.687871104","0.379267236","-0.618851831","D"
"1.71E+18","23.0431626","-0.928359926","0.582498252","-0.251853108","-0.851315856","0.469926834","0.233303159","0.051785767","0.125074416","0.053196073","-0.001577236","-0.686516988","0.381242708","-0.619149475","D"
"1.71E+18","23.05318262","-0.930739462","0.570208251","-0.225202337","-0.853790283","0.465696335","0.232744083","0.049865484","0.125398755","0.059248358","-0.006641131","-0.685162227","0.383307664","-0.619341713","D"
"1.71E+18","23.06320264","-0.929937899","0.54927963","-0.197257787","-0.856081843","0.461721271","0.232245475","0.043917358","0.117578775","0.052178651","-0.011546733","-0.683794177","0.385419587","-0.619470904","D"
"1.71E+18","23.07322241","-0.941683233","0.518990695","-0.170903414","-0.858173728","0.457959086","0.231973544","0.037494898","0.105487019","0.052511573","-0.01637031","-0.682420935","0.387670531","-0.61947186","D"
"1.71E+18","23.08324365","-0.947827101","0.502821028","-0.135016784","-0.860057235","0.454453349","0.231892139","0.026347518","0.107909322","0.061305732","-0.021052571","-0.681050548","0.390020793","-0.619363234","D"
"1.71E+18","23.09326343","-0.960388184","0.469838858","-0.091865584","-0.86170435","0.451253325","0.232026458","0.022135198","0.11295566","0.068693981","-0.02563437","-0.679638919","0.392561037","-0.619136288","D"
"1.71E+18","23.10328369","-0.943050206","0.442093551","-0.073672466","-0.863123477","0.448351145","0.232378468","0.028208077","0.116193652","0.076627523","-0.029996936","-0.6782636","0.395155318","-0.618798206","D"
"1.71E+18","23.11330371","-0.882951975","0.420965105","-0.057018925","-0.864420593","0.445640236","0.232770696","0.021692812","0.111305624","0.055590153","-0.034184559","-0.676906895","0.397721516","-0.618422356","D"
"1.71E+18","23.12332349","-0.772970915","0.393754512","-0.039698258","-0.865585983","0.443298548","0.232911423","0.012085497","0.098358005","0.022993922","-0.037950201","-0.675586708","0.400047889","-0.618145812","D"
"1.71E+18","23.13334326","-0.680797815","0.346006989","-0.021887034","-0.86658603","0.441335022","0.232921347","0.015206516","0.088541716","0.004948139","-0.041248381","-0.674357644","0.402122423","-0.617930421","D"
"1.71E+18","23.14336353","-0.583482683","0.315285653","-0.021398079","-0.867447376","0.439672023","0.232860222","0.024521232","0.084330112","0.014576554","-0.04410823","-0.673252666","0.403931878","-0.617757624","D"
"1.71E+18","23.15338354","-0.507770121","0.277021885","-0.015312222","-0.868225157","0.438226819","0.232686475","0.023284733","0.067495406","0.012858212","-0.046618708","-0.672246545","0.405497001","-0.617643704","D"
"1.71E+18","23.16340332","-0.4535788","0.228323862","-0.008915575","-0.868874133","0.436997056","0.232575387","0.023415208","0.051192611","0.023268893","-0.048791537","-0.671370075","0.406878258","-0.617520603","D"
"1.71E+18","23.17342358","-0.44670251","0.20155856","0.004359483","-0.869383514","0.435942411","0.232651681","0.030516267","0.04147464","0.044600725","-0.050734468","-0.670597489","0.408197071","-0.617333219","D"
"1.71E+18","23.1834436","-0.41097489","0.180143654","0.013133268","-0.869790912","0.435012102","0.232870027","0.031625628","0.051209211","0.062280983","-0.052552699","-0.66987393","0.409516705","-0.617092616","D"
"1.71E+18","23.19346338","-0.343045354","0.175233841","0.009094317","-0.870158017","0.434229195","0.232959822","0.030070066","0.058080375","0.050594434","-0.054141028","-0.669205072","0.410663464","-0.616918903","D"
"1.71E+18","23.2034834","-0.321368277","0.166446209","0.024129458","-0.870479226","0.433612138","0.232908696","0.02503556","0.049297959","0.031129554","-0.055541462","-0.668553038","0.411693065","-0.616815066","D"
"1.71E+18","23.21350366","-0.299828112","0.158148602","0.02751993","-0.870745003","0.433115363","0.232840404","0.02452296","0.035680443","0.031228423","-0.056840184","-0.667906945","0.412699056","-0.61672455","D"
"1.71E+18","23.22352344","-0.29485333","0.148861691","0.021746729","-0.870998681","0.432630837","0.232793093","0.021907866","0.00854665","0.037303001","-0.058076022","-0.667299628","0.41365173","-0.616628686","D"
"1.71E+18","23.23354346","-0.298364699","0.139992565","0.014715451","-0.871256471","0.432094693","0.232822716","0.016337097","-0.019939572","0.041179612","-0.059314425","-0.666728385","0.414589695","-0.616498568","D"
"1.71E+18","23.24356372","-0.270955712","0.110492937","0.008450897","-0.87150526","0.431529462","0.232940361","0.014235914","-0.026088119","0.042770982","-0.060495136","-0.666225414","0.415468261","-0.616336188","D"
"1.71E+18","23.2535835","-0.226880133","0.072225437","0.011707944","-0.871675611","0.431022465","0.233242452","0.019533038","-0.016853064","0.03912726","-0.061496532","-0.665849731","0.416251559","-0.616114662","D"
"1.71E+18","23.26360352","-0.18103914","0.04112611","0.018472105","-0.871736884","0.430696309","0.233614653","0.027712166","-0.010621816","0.034421429","-0.062233059","-0.665578818","0.416907864","-0.615889462","D"
"1.71E+18","23.27362354","-0.130043343","0.013499541","0.016457159","-0.871722519","0.43047896","0.234068021","0.021258652","-0.008680284","0.045183271","-0.062757403","-0.665414205","0.417442145","-0.615652146","D"
"1.71E+18","23.28364355","-0.09290982","0.006523125","0.012377729","-0.871686161","0.430343449","0.23445262","0.002102971","0.005508631","0.041243419","-0.063095428","-0.665323095","0.41781753","-0.615461409","D"
"1.71E+18","23.29366333","-0.095089883","0.011266747","0.009630146","-0.87165767","0.43021974","0.234785661","-0.01556474","0.006181687","0.034684777","-0.063393374","-0.665243399","0.41814358","-0.615295562","D"
"1.71E+18","23.30368335","-0.135886043","0.019647501","0.012983065","-0.871648073","0.430051416","0.235130042","-0.022013664","-0.01141116","0.025017291","-0.063760459","-0.665139938","0.418513897","-0.615117769","D"
"1.71E+18","23.31370361","-0.145627618","0.014660999","0.01087757","-0.871634364","0.42981565","0.235610619","-0.024056613","-0.021124244","0.031281099","-0.064249211","-0.665011285","0.419005136","-0.61487141","D"
"1.71E+18","23.32372339","-0.136053815","0.008373808","0.009755048","-0.871625066","0.42956987","0.236092791","-0.023791254","-0.020619035","0.021079049","-0.064714546","-0.66490313","0.419464208","-0.614626535","D"
"1.71E+18","23.33374341","-0.133579999","-0.013580493","0.021239664","-0.871445358","0.429235399","0.237360597","-0.01995784","-0.016271561","0.015737146","-0.065116003","-0.665028137","0.42002128","-0.614068117","D"
"1.71E+18","23.34376367","-0.115980253","-0.033329055","0.033267032","-0.871074319","0.429177493","0.23882246","-0.011036217","-0.004388094","0.015007675","-0.065332827","-0.665180972","0.420648911","-0.613449572","D"
"1.71E+18","23.35378345","-0.096422255","-0.058234405","0.051425528","-0.870445728","0.429200858","0.241062477","-0.006385386","0.000349343","0.011775836","-0.065378909","-0.665554569","0.421388603","-0.612531185","D"
"1.71E+18","24.64636963","-1.39292419","-0.107672259","-1.25714612","0.171286747","-0.934788108","-0.311178952","-0.162390903","0.126148462","0.882162929","0.162598957","0.219541746","-0.544253561","-0.793190549","D"
"1.71E+18","24.65638965","-1.882012963","-0.083344288","-1.526678801","0.183871135","-0.927070916","-0.32669723","-0.147234797","0.11035943","0.965170741","0.158644066","0.221574249","-0.536242704","-0.798862191","D"
"1.71E+18","24.66640967","-2.247683525","-0.049260035","-1.81146419","0.199075893","-0.916900635","-0.345922321","-0.136774272","0.18284595","1.006627917","0.15407051","0.224137375","-0.526119068","-0.805744149","D"
"1.71E+18","24.67642969","-2.5910151","-0.045201108","-2.093883276","0.216750011","-0.904177606","-0.368079692","-0.185850933","0.19522351","1.032630444","0.148744809","0.227205649","-0.514137874","-0.813581632","D"
"1.71E+18","24.68644971","-3.016697407","-0.048039936","-2.354856491","0.236574367","-0.888430417","-0.393349797","-0.235979304","0.215624571","1.049981356","0.14272235","0.230632943","-0.500133533","-0.822377812","D"
"1.71E+18","24.69646973","-3.368308783","-0.074055552","-2.548754692","0.25798884","-0.869311154","-0.421592414","-0.268822581","0.258272827","1.07436347","0.136105121","0.234224463","-0.484089553","-0.832028757","D"
"1.71E+18","24.70649072","-3.799468279","-0.070194185","-2.751834154","0.280443639","-0.846294522","-0.452920556","-0.29315424","0.307552397","1.064019799","0.129110594","0.237822196","-0.465811468","-0.842490839","D"
"1.71E+18","24.7165105","-4.337352276","-0.086531617","-2.938891411","0.303774476","-0.818819523","-0.487089187","-0.315676302","0.424791694","1.057752609","0.121774071","0.241429721","-0.445159634","-0.853648559","D"
"1.71E+18","24.72653076","-4.774625301","-0.115094014","-3.085411787","0.32758227","-0.786206365","-0.523993909","-0.31459704","0.523129463","1.064979076","0.114083013","0.244879399","-0.421944455","-0.865437587","D"
"1.71E+18","24.73655078","-5.269553185","-0.136026457","-3.263460636","0.351276338","-0.748087704","-0.563000858","-0.300952822","0.611979187","1.081601381","0.106190099","0.248066407","-0.396185087","-0.877624299","D"
"1.71E+18","24.74657056","-5.735089779","-0.207190394","-3.387232304","0.374542207","-0.703773379","-0.60367316","-0.294799745","0.718116581","1.071553469","0.098000237","0.250886763","-0.367721699","-0.890074535","D"
"1.71E+18","24.75659058","-6.129962444","-0.340581983","-3.46174407","0.396145791","-0.653397024","-0.645089805","-0.289471596","0.771912038","1.029931784","0.089638429","0.252929549","-0.336870509","-0.902502031","D"
"1.71E+18","24.7666106","-6.503800392","-0.528336823","-3.511784554","0.415079355","-0.597073615","-0.686449051","-0.279916972","0.840756416","1.006181717","0.081091546","0.253837769","-0.30387804","-0.914685079","D"
"1.71E+18","24.77663062","-6.885696888","-0.746313632","-3.570588827","0.430666506","-0.53463006","-0.727115631","-0.281511813","0.926094234","0.992908478","0.072380167","0.253422365","-0.268736477","-0.926455084","D"
"1.71E+18","24.78665039","-7.187710285","-0.99391675","-3.666728258","0.442287415","-0.466120183","-0.766233504","-0.299495667","0.916941106","0.970457196","0.063294899","0.251493165","-0.231591068","-0.937608947","D"
"1.71E+18","24.79667065","-7.507403851","-1.257710576","-3.78228569","0.449479371","-0.391640306","-0.802861273","-0.330628663","0.896706223","0.942082465","0.05371041","0.247996924","-0.192527609","-0.947916717","D"
