seconds_elapsed,rotationRateX,rotationRateY,rotationRateZ,gravityX,gravityY,gravityZ,accelerationX,accelerationY,accelerationZ,quaternionW,quaternionX,quaternionY,quaternionZ
59.4160014648437,-3.42569494247436,-1.3172218799591,8.7279577255249,-0.15898211300373,0.987262368202209,0.0061491457745432,1.57045066356658,-0.0336948633193969,0.559021234512329,0.326735700765877,-0.424489903570215,0.568227854479677,-0.624635317221457
59.4260014648437,-3.4256132064033995,-1.3173832382231223,8.728276794793798,-0.15886183283186112,0.9872751262231517,0.006197481689245207,1.5705189058500815,-0.033493001128950275,0.5590338208679455,0.32676834155233747,-0.42446841793955103,0.5682640274058611,-0.6245974275587938
59.4360014648437,-3.4255314703324395,-1.3175445964871448,8.728595864062695,-0.15874155265999226,0.9872878842440944,0.006245817603947215,1.570587148133583,-0.03329113893850365,0.559046407223562,0.32680098233879795,-0.424446932308887,0.5683002003320451,-0.6245595378961306
59.4460014648437,-3.425449734261479,-1.3177059547511671,8.728914933331593,-0.15862127248812338,0.9873006422650371,0.006294153518649222,1.5706553904170844,-0.03308927674805702,0.5590589935791787,0.32683362312525843,-0.4244254466782231,0.5683363732582292,-0.6245216482334673
59.456001464843695,-3.4253679981905187,-1.3178673130151894,8.72923400260049,-0.1585009923162545,0.9873134002859799,0.00634248943335123,1.5707236327005858,-0.03288741455761039,0.5590715799347952,0.3268662639117189,-0.42440396104755906,0.5683725461844131,-0.6244837585708041
59.46600146484369,-3.4252862621195583,-1.318028671279212,8.729553071869388,-0.15838071214438562,0.9873261583069226,0.0063908253480532366,1.570791874984087,-0.032685552367163764,0.5590841662904117,0.3268989046981794,-0.4243824754168951,0.5684087191105972,-0.6244458689081409
59.47600146484369,-3.4252045260485984,-1.3181900295432343,8.729872141138285,-0.15826043197251677,0.9873389163278653,0.006439161262755244,1.5708601172675885,-0.03248369017671714,0.5590967526460282,0.3269315454846399,-0.4243609897862311,0.5684448920367812,-0.6244079792454776
59.48600146484369,-3.425122789977638,-1.3183513878072566,8.730191210407183,-0.1581401518006479,0.987351674348808,0.006487497177457251,1.57092835955109,-0.03228182798627051,0.5591093390016447,0.32696418627110035,-0.42433950415556715,0.5684810649629652,-0.6243700895828144
59.49600146484369,-3.4250410539066776,-1.3185127460712789,8.730510279676079,-0.158019871628779,0.9873644323697507,0.006535833092159259,1.5709966018345913,-0.03207996579582388,0.5591219253572614,0.3269968270575609,-0.42431801852490314,0.5685172378891492,-0.6243321999201512
59.506001464843685,-3.424959317835717,-1.3186741043353014,8.730829348944976,-0.15789959145691015,0.9873771903906934,0.006584169006861266,1.5710648441180928,-0.03187810360537725,0.5591345117128779,0.32702946784402137,-0.4242965328942392,0.5685534108153333,-0.6242943102574879
59.51600146484368,-3.424877581764757,-1.3188354625993237,8.731148418213873,-0.15777931128504127,0.9873899484116361,0.006632504921563274,1.5711330864015942,-0.031676241414930625,0.5591470980684944,0.32706210863048185,-0.42427504726357523,0.5685895837415172,-0.6242564205948247
59.52600146484368,-3.424795845693797,-1.318996820863346,8.731467487482771,-0.1576590311131724,0.9874027064325788,0.0066808408362652805,1.5712013286850957,-0.031474379224484,0.5591596844241109,0.32709474941694233,-0.4242535616329112,0.5686257566677013,-0.6242185309321615
59.53600146484368,-3.4247141096228364,-1.3191581791273685,8.731786556751668,-0.1575387509413035,0.9874154644535216,0.006729176750967288,1.571269570968597,-0.03127251703403737,0.5591722707797274,0.3271273902034028,-0.42423207600224727,0.5686619295938853,-0.6241806412694982
59.54600146484368,-3.424632373551876,-1.3193195373913909,8.732105626020566,-0.15741847076943466,0.9874282224744643,0.006777512665669295,1.5713378132520983,-0.031070654843590742,0.5591848571353439,0.3271600309898633,-0.42421059037158326,0.5686981025200694,-0.624142751606835
59.556001464843675,-3.424550637480916,-1.3194808956554132,8.732424695289463,-0.15729819059756578,0.987440980495407,0.006825848580371303,1.5714060555355998,-0.030868792653144114,0.5591974434909606,0.3271926717763238,-0.4241891047409193,0.5687342754462533,-0.6241048619441718
59.56600146484367,-3.4244689014099556,-1.3196422539194357,8.73274376455836,-0.1571779104256969,0.9874537385163497,0.00687418449507331,1.5714742978191012,-0.030666930462697486,0.5592100298465771,0.32722531256278425,-0.4241676191102553,0.5687704483724374,-0.6240669722815085
59.57600146484367,-3.4243871653389952,-1.319803612183458,8.733062833827258,-0.15705763025382805,0.9874664965372923,0.0069225204097753176,1.5715425401026026,-0.03046506827225086,0.5592226162021936,0.32725795334924473,-0.42414613347959135,0.5688066212986214,-0.6240290826188453
59.58600146484367,-3.424305429268035,-1.3199649704474803,8.733381903096156,-0.15693735008195916,0.987479254558235,0.0069708563244773245,1.571610782386104,-0.03026320608180423,0.5592352025578101,0.3272905941357052,-0.4241246478489274,0.5688427942248054,-0.6239911929561821
59.59600146484367,-3.424223693197075,-1.3201263287115028,8.733700972365053,-0.15681706991009028,0.9874920125791777,0.007019192239179331,1.5716790246696055,-0.030061343891357603,0.5592477889134266,0.3273232349221657,-0.4241031622182634,0.5688789671509895,-0.6239533032935188
59.606001464843665,-3.4241419571261145,-1.3202876869755251,8.73402004163395,-0.1566967897382214,0.9875047706001205,0.007067528153881339,1.571747266953107,-0.029859481700910975,0.5592603752690433,0.3273558757086262,-0.42408167658759943,0.5689151400771735,-0.6239154136308556
59.61600146484366,-3.424060221055154,-1.3204490452395474,8.734339110902848,-0.15657650956635255,0.9875175286210632,0.007115864068583347,1.5718155092366084,-0.029657619510464348,0.5592729616246598,0.32738851649508666,-0.4240601909569354,0.5689513130033576,-0.6238775239681924
59.62600146484366,-3.4239784849841937,-1.32061040350357,8.734658180171746,-0.15645622939448367,0.9875302866420059,0.007164199983285354,1.5718837515201098,-0.02945575732001772,0.5592855479802763,0.32742115728154714,-0.42403870532627147,0.5689874859295415,-0.6238396343055291
59.63600146484366,-3.4238967489132337,-1.3207717617675923,8.734977249440643,-0.1563359492226148,0.9875430446629486,0.007212535897987361,1.571951993803611,-0.029253895129571092,0.5592981343358928,0.3274537980680077,-0.42401721969560746,0.5690236588557256,-0.6238017446428659
59.64600146484366,-3.4238150128422733,-1.3209331200316146,8.735296318709539,-0.15621566905074594,0.9875558026838913,0.007260871812689368,1.5720202360871125,-0.029052032939124464,0.5593107206915093,0.32748643885446815,-0.4239957340649435,0.5690598317819096,-0.6237638549802027
59.656001464843655,-3.423733276771313,-1.3210944782956369,8.735615387978436,-0.15609538887887706,0.987568560704834,0.007309207727391375,1.572088478370614,-0.028850170748677836,0.559323307047126,0.32751907964092863,-0.4239742484342795,0.5690960047080936,-0.6237259653175394
59.66600146484365,-3.4236515407003525,-1.3212558365596594,8.735934457247334,-0.15597510870700818,0.9875813187257767,0.007357543642093383,1.5721567206541154,-0.02864830855823121,0.5593358934027425,0.3275517204273891,-0.42395276280361555,0.5691321776342776,-0.6236880756548762
59.67600146484365,-3.4235698046293925,-1.3214171948236817,8.736253526516231,-0.15585482853513932,0.9875940767467195,0.00740587955679539,1.5722249629376168,-0.02844644636778458,0.559348479758359,0.3275843612138496,-0.4239312771729516,0.5691683505604617,-0.623650185992213
59.68600146484365,-3.423488068558432,-1.321578553087704,8.736572595785129,-0.15573454836327044,0.9876068347676622,0.007454215471497398,1.5722932052211183,-0.028244584177337953,0.5593610661139755,0.3276170020003101,-0.4239097915422876,0.5692045234866456,-0.6236122963295497
59.69600146484365,-3.4234063324874717,-1.3217399113517265,8.736891665054026,-0.15561426819140156,0.9876195927886049,0.007502551386199405,1.5723614475046197,-0.028042721986891325,0.559373652469592,0.32764964278677056,-0.42388830591162363,0.5692406964128297,-0.6235744066668865
59.706001464843645,-3.4233245964165113,-1.3219012696157488,8.737210734322923,-0.15549398801953268,0.9876323508095476,0.007550887300901412,1.5724296897881211,-0.027840859796444697,0.5593862388252087,0.32768228357323104,-0.4238668202809596,0.5692768693390137,-0.6235365170042233
59.71600146484364,-3.4232428603455514,-1.3220626278797711,8.737529803591821,-0.15537370784766383,0.9876451088304903,0.007599223215603419,1.5724979320716224,-0.02763899760599807,0.5593988251808252,0.3277149243596915,-0.42384533465029567,0.5693130422651977,-0.62349862734156
59.72600146484364,-3.423161124274591,-1.3222239861437937,8.737848872860718,-0.15525342767579495,0.987657866851433,0.007647559130305427,1.5725661743551238,-0.027437135415551442,0.5594114115364417,0.327747565146152,-0.42382384901963166,0.5693492151913817,-0.6234607376788968
59.73600146484364,-3.4230793882036306,-1.322385344407816,8.738167942129616,-0.15513314750392607,0.9876706248723757,0.007695895045007434,1.5726344166386252,-0.027235273225104814,0.5594239978920582,0.3277802059326125,-0.4238023633889677,0.5693853881175658,-0.6234228480162336
59.74600146484364,-3.42299765213267,-1.3225467026718383,8.738487011398513,-0.1550128673320572,0.9876833828933184,0.007744230959709442,1.5727026589221267,-0.027033411034658186,0.5594365842476747,0.32781284671907296,-0.42378087775830375,0.5694215610437497,-0.6233849583535703
59.756001464843635,-3.42291591606171,-1.3227080609358608,8.73880608066741,-0.15489258716018833,0.9876961409142612,0.0077925668744114485,1.5727709012056281,-0.02683154884421156,0.5594491706032914,0.32784548750553344,-0.42375939212763974,0.5694577339699338,-0.6233470686909071
59.76600146484363,-3.42283417999075,-1.322869419199883,8.739125149936308,-0.15477230698831945,0.9877088989352039,0.007840902789113455,1.5728391434891296,-0.02662968665376493,0.5594617569589079,0.3278781282919939,-0.4237379064969758,0.5694939068961178,-0.6233091790282439
59.77600146484363,-3.4227524439197894,-1.3230307774639054,8.739444219205206,-0.15465202681645057,0.9877216569561466,0.007889238703815464,1.572907385772631,-0.026427824463318303,0.5594743433145244,0.3279107690784544,-0.4237164208663118,0.5695300798223019,-0.6232712893655806
59.78600146484363,-3.422670707848829,-1.323192135727928,8.739763288474101,-0.15453174664458172,0.9877344149770892,0.007937574618517471,1.5729756280561324,-0.026225962272871675,0.5594869296701409,0.32794340986491494,-0.42369493523564783,0.5695662527484859,-0.6232333997029174
59.79600146484363,-3.422588971777869,-1.3233534939919502,8.740082357742999,-0.15441146647271284,0.9877471729980319,0.007985910533219478,1.5730438703396339,-0.026024100082425047,0.5594995160257574,0.3279760506513754,-0.4236734496049838,0.5696024256746699,-0.6231955100402542
59.806001464843625,-3.4225072357069086,-1.3235148522559725,8.740401427011896,-0.15429118630084396,0.9877599310189746,0.008034246447921485,1.573112112623135,-0.02582223789197842,0.5595121023813739,0.3280086914378359,-0.42365196397431987,0.569638598600854,-0.6231576203775909
59.81600146484362,-3.422425499635948,-1.3236762105199948,8.740720496280794,-0.1541709061289751,0.9877726890399173,0.008082582362623492,1.5731803549066365,-0.025620375701531792,0.5595246887369906,0.3280413322242964,-0.42363047834365586,0.5696747715270379,-0.6231197307149277
59.82600146484362,-3.422343763564988,-1.3238375687840174,8.741039565549691,-0.15405062595710622,0.9877854470608601,0.0081309182773255,1.573248597190138,-0.025418513511085164,0.5595372750926071,0.32807397301075686,-0.4236089927129919,0.569710944453222,-0.6230818410522645
59.83600146484362,-3.422262027494028,-1.3239989270480397,8.741358634818589,-0.15393034578523734,0.9877982050818028,0.008179254192027507,1.5733168394736394,-0.025216651320638536,0.5595498614482236,0.32810661379721734,-0.42358750708232795,0.569747117379406,-0.6230439513896012
59.84600146484362,-3.4221802914230675,-1.324160285312062,8.741677704087486,-0.15381006561336846,0.9878109631027455,0.008227590106729514,1.5733850817571409,-0.02501478913019191,0.5595624478038401,0.3281392545836778,-0.42356602145166394,0.56978329030559,-0.623006061726938
59.856001464843615,-3.422098555352107,-1.3243216435760845,8.741996773356384,-0.1536897854414996,0.9878237211236882,0.008275926021431523,1.5734533240406423,-0.02481292693974528,0.5595750341594566,0.3281718953701383,-0.423544535821,0.569819463231774,-0.6229681720642748
59.86600146484361,-3.4220168192811466,-1.3244830018401068,8.742315842625281,-0.15356950526963073,0.9878364791446309,0.00832426193613353,1.5735215663241438,-0.024611064749298653,0.5595876205150733,0.3282045361565988,-0.423523050190336,0.5698556361579581,-0.6229302824016115
59.87600146484361,-3.4219350832101867,-1.3246443601041291,8.742634911894179,-0.15344922509776185,0.9878492371655736,0.008372597850835536,1.5735898086076452,-0.024409202558852025,0.5596002068706898,0.32823717694305926,-0.42350156455967203,0.569891809084142,-0.6228923927389483
59.88600146484361,-3.4218533471392263,-1.3248057183681516,8.742953981163076,-0.153328944925893,0.9878619951865163,0.008420933765537543,1.5736580508911464,-0.024207340368405397,0.5596127932263063,0.32826981772951974,-0.423480078929008,0.5699279820103261,-0.6228545030762851
59.89600146484361,-3.421771611068266,-1.324967076632174,8.743273050431974,-0.15320866475402412,0.987874753207459,0.00846926968023955,1.5737262931746479,-0.02400547817795877,0.5596253795819228,0.3283024585159802,-0.42345859329834407,0.5699641549365101,-0.6228166134136218
59.906001464843605,-3.4216898749973055,-1.3251284348961963,8.743592119700871,-0.15308838458215523,0.9878875112284018,0.008517605594941559,1.5737945354581493,-0.02380361598751214,0.5596379659375393,0.3283350993024407,-0.4234371076676801,0.5700003278626942,-0.6227787237509586
59.9160014648436,-3.4216081389263455,-1.3252897931602188,8.743911188969768,-0.15296810441028635,0.9879002692493445,0.008565941509643566,1.5738627777416507,-0.023601753797065514,0.559650552293156,0.3283677400889012,-0.4234156220370161,0.5700365007888781,-0.6227408340882954
59.9260014648436,-3.421526402855385,-1.325451151424241,8.744230258238666,-0.1528478242384175,0.9879130272702872,0.008614277424345573,1.5739310200251522,-0.023399891606618886,0.5596631386487725,0.32840038087536166,-0.42339413640635215,0.5700726737150622,-0.6227029444256321
59.9360014648436,-3.4214446667844247,-1.3256125096882634,8.744549327507562,-0.15272754406654862,0.9879257852912299,0.00866261333904758,1.5739992623086536,-0.02319802941617226,0.559675725004389,0.3284330216618222,-0.42337265077568814,0.5701088466412462,-0.6226650547629689
59.9460014648436,-3.4213629307134643,-1.325773867952286,8.744868396776459,-0.15260726389467974,0.9879385433121726,0.008710949253749586,1.574067504592155,-0.02299616722572563,0.5596883113600055,0.3284656624482827,-0.4233511651450242,0.5701450195674302,-0.6226271651003057
59.956001464843595,-3.4212811946425044,-1.3259352262163082,8.745187466045357,-0.1524869837228109,0.9879513013331153,0.008759285168451595,1.5741357468756565,-0.022794305035279003,0.559700897715622,0.32849830323474316,-0.4233296795143602,0.5701811924936143,-0.6225892754376424
59.96600146484359,-3.421199458571544,-1.3260965844803305,8.745506535314254,-0.152366703550942,0.987964059354058,0.008807621083153602,1.574203989159158,-0.022592442844832375,0.5597134840712387,0.32853094402120364,-0.4233081938836962,0.5702173654197983,-0.6225513857749791
59.97600146484359,-3.4211177225005835,-1.3262579427443528,8.745825604583152,-0.15224642337907313,0.9879768173750008,0.008855956997855609,1.5742722314426592,-0.022390580654385747,0.5597260704268552,0.3285635848076641,-0.4232867082530322,0.5702535383459824,-0.622513496112316
59.98600146484359,-3.4210359864296236,-1.3264193010083754,8.746144673852049,-0.15212614320720425,0.9879895753959435,0.008904292912557617,1.5743404737261606,-0.02218871846393912,0.5597386567824717,0.3285962255941246,-0.42326522262236826,0.5702897112721663,-0.6224756064496527
59.99600146484359,-3.420954250358663,-1.3265806592723977,8.746463743120946,-0.1520058630353354,0.9880023334168861,0.008952628827259624,1.574408716009662,-0.02198685627349249,0.5597512431380882,0.3286288663805851,-0.4232437369917043,0.5703258841983504,-0.6224377167869894
60.006001464843585,-3.420872514287703,-1.32674201753642,8.746782812389844,-0.1518855828634665,0.9880150914378288,0.009000964741961631,1.5744769582931635,-0.021784994083045864,0.5597638294937047,0.32866150716704556,-0.4232222513610403,0.5703620571245344,-0.6223998271243263
60.01600146484358,-3.4207907782167424,-1.3269033758004425,8.747101881658741,-0.15176530269159763,0.9880278494587715,0.009049300656663638,1.574545200576665,-0.021583131892599236,0.5597764158493213,0.32869414795350604,-0.42320076573037635,0.5703982300507184,-0.622361937461663
60.02600146484358,-3.4207090421457824,-1.3270647340644648,8.747420950927639,-0.15164502251972878,0.9880406074797142,0.009097636571365645,1.5746134428601664,-0.021381269702152608,0.5597890022049379,0.3287267887399665,-0.42317928009971234,0.5704344029769024,-0.6223240477989997
60.03600146484358,-3.420627306074822,-1.327226092328487,8.747740020196536,-0.1515247423478599,0.9880533655006569,0.009145972486067654,1.5746816851436678,-0.02117940751170598,0.5598015885605544,0.328759429526427,-0.4231577944690484,0.5704705759030865,-0.6222861581363366
60.04600146484358,-3.4205455700038616,-1.3273874505925096,8.748059089465434,-0.15140446217599102,0.9880661235215997,0.00919430840076966,1.5747499274271692,-0.020977545321259353,0.5598141749161709,0.3287920703128875,-0.4231363088383844,0.5705067488292704,-0.6222482684736733
60.056001464843575,-3.420463833932901,-1.327548808856532,8.748378158734331,-0.15128418200412214,0.9880788815425424,0.009242644315471667,1.5748181697106705,-0.020775683130812725,0.5598267612717874,0.32882471109934797,-0.4231148232077204,0.5705429217554545,-0.62221037881101
60.06600146484357,-3.4203820978619413,-1.3277101671205542,8.748697228003229,-0.15116390183225328,0.9880916395634851,0.009290980230173674,1.574886411994172,-0.020573820940366097,0.559839347627404,0.32885735188580845,-0.4230933375770564,0.5705790946816385,-0.6221724891483469
60.07600146484357,-3.420300361790981,-1.3278715253845768,8.749016297272126,-0.1510436216603844,0.9881043975844278,0.009339316144875681,1.5749546542776733,-0.02037195874991947,0.5598519339830206,0.328889992672269,-0.42307185194639246,0.5706152676078226,-0.6221345994856836
60.08600146484357,-3.4202186257200204,-1.328032883648599,8.749335366541022,-0.15092334148851552,0.9881171556053705,0.00938765205957769,1.5750228965611748,-0.02017009655947284,0.5598645203386371,0.32892263345872946,-0.4230503663157285,0.5706514405340065,-0.6220967098230203
60.09600146484357,-3.42013688964906,-1.3281942419126214,8.74965443580992,-0.15080306131664667,0.9881299136263132,0.009435987974279697,1.5750911388446762,-0.019968234369026214,0.5598771066942536,0.32895527424518994,-0.4230288806850645,0.5706876134601906,-0.6220588201603572
60.106001464843565,-3.4200551535781,-1.328355600176644,8.749973505078817,-0.1506827811447778,0.9881426716472559,0.009484323888981704,1.5751593811281777,-0.019766372178579586,0.5598896930498701,0.3289879150316504,-0.42300739505440055,0.5707237863863746,-0.6220209304976939
60.11600146484356,-3.4199734175071397,-1.3285169584406662,8.750292574347714,-0.1505625009729089,0.9881554296681986,0.009532659803683712,1.575227623411679,-0.019564509988132958,0.5599022794054866,0.3290205558181109,-0.42298590942373654,0.5707599593125586,-0.6219830408350306
60.12600146484356,-3.4198916814361793,-1.3286783167046885,8.750611643616612,-0.15044222080104003,0.9881681876891414,0.009580995718385719,1.5752958656951805,-0.01936264779768633,0.5599148657611033,0.3290531966045714,-0.4229644237930726,0.5707961322387426,-0.6219451511723675
60.13600146484356,-3.419809945365219,-1.3288396749687108,8.75093071288551,-0.15032194062917117,0.9881809457100841,0.009629331633087726,1.575364107978682,-0.019160785607239703,0.5599274521167198,0.32908583739103187,-0.4229429381624086,0.5708323051649267,-0.6219072615097042
60.14600146484356,-3.419728209294259,-1.3290010332327333,8.751249782154407,-0.1502016604573023,0.9881937037310268,0.009677667547789733,1.5754323502621832,-0.018958923416793075,0.5599400384723363,0.32911847817749235,-0.4229214525317446,0.5708684780911107,-0.6218693718470409
60.156001464843555,-3.4196464732232985,-1.3291623914967556,8.751568851423304,-0.1500813802854334,0.9882064617519695,0.00972600346249174,1.5755005925456846,-0.018757061226346447,0.5599526248279528,0.3291511189639528,-0.42289996690108067,0.5709046510172947,-0.6218314821843778
60.16600146484355,-3.419564737152338,-1.329323749760778,8.751887920692202,-0.14996110011356456,0.9882192197729122,0.009774339377193748,1.575568834829186,-0.01855519903589982,0.5599652111835693,0.3291837597504133,-0.42287848127041666,0.5709408239434788,-0.6217935925217145
60.17600146484355,-3.4194830010813777,-1.3294851080248005,8.752206989961099,-0.14984081994169568,0.9882319777938549,0.009822675291895755,1.5756370771126875,-0.01835333684545319,0.559977797539186,0.3292164005368738,-0.4228569956397527,0.5709769968696627,-0.6217557028590512
60.18600146484355,-3.4194012650104177,-1.3296464662888228,8.752526059229996,-0.1497205397698268,0.9882447358147975,0.009871011206597762,1.575705319396189,-0.018151474655006564,0.5599903838948025,0.32924904132333427,-0.4228355100090887,0.5710131697958468,-0.6217178131963881
60.19600146484355,-3.4193195289394573,-1.329807824552845,8.752845128498894,-0.14960025959795792,0.9882574938357404,0.00991934712129977,1.5757735616796904,-0.017949612464559936,0.560002970250419,0.32928168210979475,-0.42281402437842475,0.5710493427220308,-0.6216799235337248
60.206001464843546,-3.419237792868497,-1.3299691828168676,8.753164197767791,-0.14947997942608907,0.988270251856683,0.009967683036001778,1.5758418039631918,-0.017747750274113308,0.5600155566060355,0.32931432289625523,-0.42279253874776074,0.5710855156482149,-0.6216420338710615
60.21600146484354,-3.4191560567975365,-1.33013054108089,8.753483267036689,-0.14935969925422019,0.9882830098776257,0.010016018950703785,1.5759100462466933,-0.01754588808366668,0.560028142961652,0.3293469636827157,-0.4227710531170968,0.5711216885743988,-0.6216041442083984
60.22600146484354,-3.4190743207265766,-1.3302918993449122,8.753802336305585,-0.1492394190823513,0.9882957678985684,0.010064354865405791,1.5759782885301945,-0.017344025893220053,0.5600407293172686,0.32937960446917625,-0.4227495674864328,0.5711578615005829,-0.6215662545457351
60.23600146484354,-3.418992584655616,-1.3304532576089347,8.754121405574482,-0.14911913891048245,0.9883085259195111,0.010112690780107798,1.576046530813696,-0.017142163702773425,0.5600533156728852,0.3294122452556367,-0.4227280818557688,0.5711940344267669,-0.6215283648830718
60.24600146484354,-3.4189108485846558,-1.330614615872957,8.75444047484338,-0.14899885873861357,0.9883212839404538,0.010161026694809807,1.5761147730971974,-0.016940301512326797,0.5600659020285017,0.3294448860420972,-0.42270659622510487,0.5712302073529509,-0.6214904752204087
60.256001464843536,-3.4188291125136954,-1.3307759741369793,8.754759544112277,-0.1488785785667447,0.9883340419613965,0.010209362609511814,1.5761830153806988,-0.01673843932188017,0.5600784883841182,0.3294775268285577,-0.42268511059444086,0.5712663802791349,-0.6214525855577454
60.266001464843534,-3.4187473764427354,-1.3309373324010019,8.755078613381174,-0.1487582983948758,0.9883467999823392,0.01025769852421382,1.5762512576642003,-0.01653657713143354,0.5600910747397347,0.32951016761501817,-0.4226636249637769,0.571302553205319,-0.6214146958950821
60.27600146484353,-3.418665640371775,-1.3310986906650242,8.755397682650072,-0.14863801822300696,0.988359558003282,0.01030603443891583,1.5763194999477017,-0.016334714940986914,0.5601036610953513,0.32954280840147865,-0.4226421393331129,0.5713387261315029,-0.621376806232419
60.28600146484353,-3.4185839043008146,-1.3312600489290465,8.75571675191897,-0.14851773805113808,0.9883723160242247,0.010354370353617835,1.5763877422312031,-0.016132852750540286,0.5601162474509679,0.32957544918793913,-0.42262065370244895,0.571374899057687,-0.6213389165697557
60.29600146484353,-3.418502168229854,-1.3314214071930688,8.756035821187867,-0.1483974578792692,0.9883850740451674,0.010402706268319843,1.5764559845147046,-0.015930990560093658,0.5601288338065844,0.3296080899743996,-0.42259916807178494,0.571411071983871,-0.6213010269070924
60.306001464843526,-3.4184204321588942,-1.3315827654570913,8.756354890456764,-0.14827717770740034,0.9883978320661101,0.01045104218302185,1.576524226798206,-0.01572912836964703,0.5601414201622009,0.3296407307608601,-0.422577682441121,0.571447244910055,-0.6212631372444293
60.316001464843524,-3.418338696087934,-1.3317441237211136,8.756673959725662,-0.14815689753553146,0.9884105900870528,0.010499378097723857,1.5765924690817072,-0.015527266179200402,0.5601540065178174,0.32967337154732057,-0.42255619681045703,0.5714834178362391,-0.621225247581766
60.32600146484352,-3.4182569600169734,-1.331905481985136,8.75699302899456,-0.14803661736366258,0.9884233481079955,0.010547714012425866,1.5766607113652087,-0.015325403988753775,0.560166592873434,0.32970601233378105,-0.422534711179793,0.5715195907624231,-0.6211873579191027
60.33600146484352,-3.418175223946013,-1.3320668402491584,8.757312098263457,-0.14791633719179373,0.9884361061289382,0.010596049927127872,1.5767289536487101,-0.015123541798307147,0.5601791792290506,0.32973865312024153,-0.42251322554912907,0.5715557636886072,-0.6211494682564396
60.34600146484352,-3.418093487875053,-1.3322281985131808,8.757631167532354,-0.14779605701992485,0.988448864149881,0.01064438584182988,1.5767971959322116,-0.014921679607860519,0.5601917655846671,0.329771293906702,-0.42249173991846506,0.5715919366147911,-0.6211115785937763
60.356001464843516,-3.4180117518040927,-1.332389556777203,8.757950236801252,-0.14767577684805597,0.9884616221708237,0.010692721756531886,1.576865438215713,-0.014719817417413891,0.5602043519402836,0.3298039346931625,-0.4224702542878011,0.5716281095409752,-0.621073688931113
60.366001464843514,-3.4179300157331323,-1.3325509150412256,8.758269306070149,-0.1475554966761871,0.9884743801917664,0.010741057671233893,1.5769336804992145,-0.014517955226967263,0.5602169382959001,0.329836575479623,-0.4224487686571371,0.5716642824671592,-0.6210357992684499
60.37600146484351,-3.417848279662172,-1.3327122733052479,8.758588375339045,-0.14743521650431823,0.9884871382127091,0.010789393585935902,1.577001922782716,-0.014316093036520636,0.5602295246515167,0.3298692162660835,-0.42242728302647314,0.5717004553933432,-0.6209979096057866
60.38600146484351,-3.417766543591212,-1.3328736315692702,8.758907444607942,-0.14731493633244935,0.9884998962336518,0.010837729500637909,1.5770701650662173,-0.014114230846074008,0.5602421110071333,0.329901857052544,-0.42240579739580913,0.5717366283195272,-0.6209600199431233
60.39600146484351,-3.4176848075202515,-1.3330349898332927,8.75922651387684,-0.14719465616058047,0.9885126542545944,0.010886065415339916,1.5771384073497186,-0.01391236865562738,0.5602546973627498,0.32993449783900447,-0.4223843117651452,0.5717728012457113,-0.6209221302804602
60.406001464843506,-3.417603071449291,-1.333196348097315,8.759545583145737,-0.14707437598871162,0.9885254122755371,0.010934401330041924,1.57720664963322,-0.013710506465180752,0.5602672837183663,0.32996713862546495,-0.42236282613448123,0.5718089741718952,-0.6208842406177969
60.416001464843504,-3.4175213353783307,-1.3333577063613373,8.759864652414635,-0.14695409581684274,0.98853817029648,0.01098273724474393,1.5772748919167214,-0.013508644274734125,0.5602798700739828,0.32999977941192543,-0.4223413405038172,0.5718451470980793,-0.6208463509551336
60.4260014648435,-3.4174395993073707,-1.3335190646253599,8.760183721683532,-0.14683381564497386,0.9885509283174226,0.011031073159445938,1.5773431342002229,-0.013306782084287497,0.5602924564295994,0.3300324201983859,-0.42231985487315327,0.5718813200242633,-0.6208084612924705
60.4360014648435,-3.4173578632364103,-1.3336804228893822,8.76050279095243,-0.14671353547310498,0.9885636863383653,0.011079409074147945,1.5774113764837243,-0.013104919893840869,0.560305042785216,0.3300650609848464,-0.42229836924248926,0.5719174929504474,-0.6207705716298072
60.4460014648435,-3.41727612716545,-1.3338417811534045,8.760821860221327,-0.14659325530123613,0.988576444359308,0.011127744988849952,1.5774796187672258,-0.012903057703394241,0.5603176291408325,0.3300977017713069,-0.4222768836118253,0.5719536658766313,-0.6207326819671439
60.456001464843496,-3.4171943910944895,-1.3340031394174268,8.761140929490224,-0.14647297512936724,0.9885892023802507,0.01117608090355196,1.5775478610507272,-0.012701195512947613,0.560330215496449,0.33013034255776735,-0.4222553979811613,0.5719898388028154,-0.6206947923044808
60.466001464843494,-3.4171126550235296,-1.3341644976814493,8.761459998759122,-0.14635269495749836,0.9886019604011934,0.011224416818253967,1.5776161033342286,-0.012499333322500986,0.5603428018520655,0.33016298334422783,-0.42223391235049734,0.5720260117289994,-0.6206569026418175
60.47600146484349,-3.417030918952569,-1.3343258559454716,8.76177906802802,-0.1462324147856295,0.9886147184221361,0.011272752732955974,1.57768434561773,-0.012297471132054358,0.560355388207682,0.3301956241306883,-0.4222124267198334,0.5720621846551834,-0.6206190129791542
60.48600146484349,-3.4169491828816088,-1.334487214209494,8.762098137296917,-0.14611213461376063,0.9886274764430788,0.011321088647657983,1.5777525879012313,-0.01209560894160773,0.5603679745632986,0.3302282649171488,-0.4221909410891694,0.5720983575813674,-0.6205811233164911
60.49600146484349,-3.4168674468106484,-1.3346485724735164,8.762417206565814,-0.14599185444189175,0.9886402344640216,0.011369424562359988,1.5778208301847327,-0.011893746751161102,0.5603805609189152,0.3302609057036093,-0.4221694554585054,0.5721345305075515,-0.6205432336538278
60.506001464843486,-3.4167857107396884,-1.3348099307375387,8.762736275834712,-0.14587157427002287,0.9886529924849643,0.011417760477061997,1.5778890724682342,-0.011691884560714474,0.5603931472745317,0.33029354649006976,-0.4221479698278414,0.5721707034337356,-0.6205053439911645
60.516001464843484,-3.416703974668728,-1.334971289001561,8.76305534510361,-0.14575129409815402,0.988665750505907,0.011466096391764003,1.5779573147517356,-0.011490022370267847,0.5604057336301482,0.3303261872765303,-0.42212648419717747,0.5722068763599195,-0.6204674543285014
60.52600146484348,-3.4166222385977676,-1.3351326472655836,8.763374414372505,-0.14563101392628514,0.9886785085268497,0.01151443230646601,1.578025557035237,-0.011288160179821219,0.5604183199857647,0.3303588280629908,-0.42210499856651346,0.5722430492861036,-0.6204295646658381
60.53600146484348,-3.416540502526807,-1.3352940055296059,8.763693483641402,-0.14551073375441625,0.9886912665477924,0.011562768221168019,1.5780937993187385,-0.011086297989374591,0.5604309063413813,0.33039146884945125,-0.4220835129358495,0.5722792222122876,-0.6203916750031748
60.54600146484348,-3.4164587664558472,-1.3354553637936282,8.7640125529103,-0.1453904535825474,0.9887040245687351,0.011611104135870024,1.57816204160224,-0.010884435798927963,0.5604434926969979,0.33042410963591173,-0.4220620273051855,0.5723153951384716,-0.6203537853405117
60.556001464843476,-3.416377030384887,-1.3356167220576507,8.764331622179197,-0.14527017341067852,0.9887167825896778,0.011659440050572033,1.5782302838857414,-0.010682573608481332,0.5604560790526144,0.3304567504223722,-0.42204054167452154,0.5723515680646556,-0.6203158956778484
60.566001464843474,-3.4162952943139264,-1.335778080321673,8.764650691448095,-0.14514989323880964,0.9887295406106206,0.01170777596527404,1.5782985261692426,-0.010480711418034704,0.5604686654082309,0.3304893912088327,-0.4220190560438576,0.5723877409908397,-0.6202780060151851
60.57600146484347,-3.4162135582429665,-1.3359394385856953,8.764969760716992,-0.14502961306694076,0.9887422986315633,0.011756111879976047,1.578366768452744,-0.010278849227588076,0.5604812517638474,0.3305220319952932,-0.4219975704131936,0.5724239139170236,-0.620240116352522
60.58600146484347,-3.416131822172006,-1.3361007968497178,8.76528882998589,-0.1449093328950719,0.988755056652506,0.011804447794678055,1.5784350107362455,-0.010076987037141449,0.560493838119464,0.33055467278175366,-0.4219760847825296,0.5724600868432077,-0.6202022266898587
60.59600146484347,-3.4160500861010457,-1.3362621551137401,8.765607899254787,-0.14478905272320303,0.9887678146734487,0.011852783709380062,1.578503253019747,-0.009875124846694821,0.5605064244750806,0.33058731356821414,-0.4219545991518656,0.5724962597693917,-0.6201643370271954
60.606001464843466,-3.4159683500300853,-1.3364235133777624,8.765926968523685,-0.14466877255133415,0.9887805726943913,0.011901119624082069,1.5785714953032484,-0.009673262656248193,0.5605190108306971,0.3306199543546746,-0.42193311352120166,0.5725324326955757,-0.6201264473645322
60.616001464843464,-3.4158866139591253,-1.3365848716417847,8.766246037792582,-0.1445484923794653,0.988793330715334,0.011949455538784078,1.5786397375867498,-0.009471400465801565,0.5605315971863136,0.3306525951411351,-0.42191162789053765,0.5725686056217597,-0.620088557701869
60.62600146484346,-3.415804877888165,-1.3367462299058073,8.76656510706148,-0.1444282122075964,0.9888060887362767,0.011997791453486083,1.5787079798702512,-0.009269538275354938,0.5605441835419301,0.3306852359275956,-0.4218901422598737,0.5726047785479438,-0.6200506680392057
60.63600146484346,-3.4157231418172045,-1.3369075881698296,8.766884176330377,-0.14430793203572753,0.9888188467572194,0.012046127368188091,1.5787762221537527,-0.00906767608490831,0.5605567698975467,0.33071787671405606,-0.4218686566292097,0.5726409514741277,-0.6200127783765425
60.64600146484346,-3.415641405746244,-1.3370689464338519,8.767203245599275,-0.14418765186385868,0.9888316047781622,0.012094463282890098,1.5788444644372541,-0.008865813894461682,0.5605693562531633,0.33075051750051654,-0.42184717099854574,0.5726771244003118,-0.6199748887138793
60.656001464843456,-3.415559669675284,-1.3372303046978744,8.767522314868172,-0.1440673716919898,0.9888443627991049,0.012142799197592105,1.5789127067207553,-0.008663951704015054,0.5605819426087798,0.330783158286977,-0.4218256853678818,0.5727132973264958,-0.619936999051216
60.666001464843454,-3.4154779336043237,-1.3373916629618967,8.767841384137068,-0.14394709152012092,0.9888571208200476,0.012191135112294114,1.5789809490042568,-0.008462089513568426,0.5605945289643963,0.33081579907343756,-0.4218041997372178,0.5727494702526799,-0.6198991093885527
60.67600146484345,-3.4153961975333633,-1.337553021225919,8.768160453405965,-0.14382681134825204,0.9888698788409903,0.01223947102699612,1.5790491912877582,-0.008260227323121799,0.5606071153200128,0.33084843985989804,-0.4217827141065538,0.5727856431788639,-0.6198612197258896
60.68600146484345,-3.415314461462403,-1.3377143794899415,8.768479522674863,-0.14370653117638318,0.988882636861933,0.012287806941698128,1.5791174335712597,-0.00805836513267517,0.5606197016756294,0.3308810806463585,-0.4217612284758898,0.5728218161050479,-0.6198233300632263
60.69600146484345,-3.415232725391443,-1.3378757377539638,8.76879859194376,-0.1435862510045143,0.9888953948828757,0.012336142856400136,1.579185675854761,-0.007856502942228543,0.5606322880312459,0.330913721432819,-0.42173974284522586,0.572857989031232,-0.619785440400563
60.706001464843446,-3.4151509893204826,-1.3380370960179861,8.769117661212658,-0.14346597083264542,0.9889081529038184,0.012384478771102141,1.5792539181382625,-0.007654640751781915,0.5606448743868625,0.3309463622192795,-0.42171825721456185,0.5728941619574159,-0.6197475507378999
60.716001464843444,-3.415069253249522,-1.3381984542820087,8.769436730481555,-0.14334569066077657,0.9889209109247612,0.01243281468580415,1.579322160421764,-0.0074527785613352875,0.560657460742479,0.33097900300573996,-0.4216967715838979,0.5729303348836,-0.6197096610752366
60.72600146484344,-3.4149875171785617,-1.338359812546031,8.769755799750452,-0.1432254104889077,0.9889336689457039,0.012481150600506157,1.5793904027052654,-0.00725091637088866,0.5606700470980955,0.33101164379220044,-0.42167528595323395,0.572966507809784,-0.6196717714125733
60.73600146484344,-3.414905781107602,-1.3385211708100533,8.77007486901935,-0.1431051303170388,0.9889464269666466,0.012529486515208164,1.5794586449887666,-0.007049054180442032,0.560682633453712,0.3310442845786609,-0.42165380032256994,0.573002680735968,-0.6196338817499102
60.74600146484344,-3.4148240450366414,-1.3386825290740756,8.770393938288247,-0.14298485014516993,0.9889591849875893,0.012577822429910172,1.579526887272268,-0.006847191989995404,0.5606952198093286,0.3310769253651214,-0.421632314691906,0.573038853662152,-0.6195959920872469
60.756001464843436,-3.414742308965681,-1.3388438873380981,8.770713007557145,-0.14286456997330108,0.988971943008532,0.012626158344612178,1.5795951295557695,-0.006645329799548776,0.5607078061649452,0.3311095661515819,-0.421610829061242,0.5730750265883361,-0.6195581024245836
60.766001464843434,-3.4146605728947206,-1.3390052456021204,8.771032076826042,-0.1427442898014322,0.9889847010294747,0.012674494259314186,1.579663371839271,-0.0064434676091021485,0.5607203925205617,0.33114220693804236,-0.421589343430578,0.57311119951452,-0.6195202127619205
60.77600146484343,-3.4145788368237606,-1.3391666038661427,8.77135114609494,-0.14262400962956331,0.9889974590504174,0.012722830174016193,1.5797316141227724,-0.006241605418655521,0.5607329788761782,0.33117484772450284,-0.421567857799914,0.5731473724407041,-0.6194823230992572
60.78600146484343,-3.4144971007528,-1.3393279621301653,8.771670215363837,-0.14250372945769446,0.9890102170713602,0.0127711660887182,1.5797998564062739,-0.006039743228208893,0.5607455652317948,0.3312074885109633,-0.42154637216925006,0.5731835453668881,-0.6194444334365939
60.79600146484343,-3.41441536468184,-1.3394893203941876,8.771989284632735,-0.14238344928582558,0.9890229750923029,0.012819502003420209,1.5798680986897753,-0.005837881037762265,0.5607581515874113,0.3312401292974238,-0.42152488653858605,0.5732197182930722,-0.6194065437739308
60.806001464843426,-3.4143336286108794,-1.3396506786582099,8.772308353901632,-0.1422631691139567,0.9890357331132456,0.012867837918122215,1.5799363409732767,-0.005636018847315637,0.5607707379430279,0.3312727700838843,-0.4215034009079221,0.5732558912192561,-0.6193686541112675
60.816001464843424,-3.4142518925399195,-1.3398120369222324,8.772627423170528,-0.14214288894208782,0.9890484911341882,0.012916173832824222,1.5800045832567782,-0.00543415665686901,0.5607833242986444,0.3313054108703448,-0.42148191527725815,0.5732920641454402,-0.6193307644486042
60.82600146484342,-3.414170156468959,-1.3399733951862547,8.772946492439425,-0.14202260877021897,0.9890612491551309,0.012964509747526231,1.5800728255402794,-0.005232294466422382,0.5607959106542609,0.3313380516568053,-0.42146042964659414,0.5733282370716242,-0.6192928747859411
60.83600146484342,-3.4140884203979986,-1.340134753450277,8.773265561708323,-0.14190232859835009,0.9890740071760736,0.013012845662228236,1.5801410678237808,-0.005030432275975754,0.5608084970098774,0.3313706924432658,-0.4214389440159302,0.5733644099978082,-0.6192549851232778
60.84600146484342,-3.4140066843270382,-1.3402961117142995,8.77358463097722,-0.1417820484264812,0.9890867651970163,0.013061181576930245,1.5802093101072823,-0.004828570085529126,0.560821083365494,0.33140333322972626,-0.4214174583852662,0.5734005829239923,-0.6192170954606145
60.856001464843416,-3.4139249482560783,-1.3404574699783218,8.773903700246118,-0.14166176825461235,0.989099523217959,0.013109517491632252,1.5802775523907837,-0.0046267078950824984,0.5608336697211106,0.33143597401618674,-0.4213959727546022,0.5734367558501763,-0.6191792057979514
60.866001464843414,-3.413843212185118,-1.3406188282423441,8.774222769515015,-0.14154148808274347,0.9891122812389018,0.013157853406334259,1.5803457946742852,-0.004424845704635871,0.5608462560767271,0.3314686148026472,-0.4213744871239382,0.5734729287763604,-0.6191413161352881
60.87600146484341,-3.4137614761141575,-1.3407801865063667,8.774541838783913,-0.1414212079108746,0.9891250392598445,0.013206189321036267,1.5804140369577866,-0.004222983514189243,0.5608588424323436,0.3315012555891077,-0.42135300149327426,0.5735091017025443,-0.6191034264726248
60.88600146484341,-3.413679740043197,-1.340941544770389,8.77486090805281,-0.1413009277390057,0.9891377972807872,0.013254525235738274,1.580482279241288,-0.004021121323742615,0.5608714287879601,0.3315338963755682,-0.4213315158626103,0.5735452746287284,-0.6190655368099617
60.89600146484341,-3.413598003972237,-1.3411029030344113,8.775179977321708,-0.14118064756713686,0.9891505553017299,0.013302861150440281,1.5805505215247895,-0.0038192591332959873,0.5608840151435767,0.33156653716202866,-0.4213100302319463,0.5735814475549124,-0.6190276471472984
60.906001464843406,-3.4135162679012767,-1.3412642612984336,8.775499046590605,-0.14106036739526798,0.9891633133226726,0.013351197065142288,1.5806187638082907,-0.0036173969428493595,0.5608966014991932,0.33159917794848914,-0.42128854460128234,0.5736176204810964,-0.6189897574846351
60.916001464843404,-3.4134345318303163,-1.341425619562456,8.775818115859503,-0.1409400872233991,0.9891760713436153,0.013399532979844295,1.5806870060917921,-0.0034155347524027317,0.5609091878548098,0.3316318187349496,-0.42126705897061834,0.5736537934072804,-0.618951867821972
60.9260014648434,-3.413352795759356,-1.3415869778264784,8.7761371851284,-0.14081980705153024,0.989188829364558,0.013447868894546303,1.5807552483752936,-0.003213672561956104,0.5609217742104263,0.3316644595214101,-0.4212455733399544,0.5736899663334645,-0.6189139781593087
60.9360014648434,-3.413271059688396,-1.3417483360905007,8.776456254397297,-0.14069952687966136,0.9892015873855008,0.01349620480924831,1.580823490658795,-0.003011810371509476,0.5609343605660428,0.3316971003078706,-0.4212240877092904,0.5737261392596484,-0.6188760884966454
60.9460014648434,-3.4131893236174355,-1.3419096943545232,8.776775323666195,-0.14057924670779248,0.9892143454064435,0.013544540723950317,1.5808917329422965,-0.0028099481810628484,0.5609469469216594,0.33172974109433107,-0.4212026020786264,0.5737623121858325,-0.6188381988339823
60.956001464843396,-3.413107587546475,-1.3420710526185455,8.777094392935092,-0.1404589665359236,0.9892271034273862,0.013592876638652326,1.580959975225798,-0.0026080859906162206,0.5609595332772759,0.3317623818807916,-0.4211811164479624,0.5737984851120165,-0.618800309171319
60.966001464843394,-3.4130258514755147,-1.3422324108825678,8.777413462203988,-0.14033868636405475,0.9892398614483289,0.013641212553354331,1.5810282175092993,-0.0024062238001695962,0.5609721196328925,0.3317950226672521,-0.42115963081729846,0.5738346580382006,-0.6187624195086557
60.97600146484339,-3.412944115404555,-1.3423937691465904,8.777732531472886,-0.14021840619218587,0.9892526194692716,0.01368954846805634,1.5810964597928008,-0.0022043616097229685,0.560984705988509,0.33182766345371256,-0.4211381451866345,0.5738708309643845,-0.6187245298459926
60.98600146484339,-3.4128623793335944,-1.3425551274106127,8.778051600741783,-0.140098126020317,0.9892653774902143,0.013737884382758346,1.5811647020763022,-0.0020024994192763407,0.5609972923441255,0.33186030424017304,-0.4211166595559705,0.5739070038905686,-0.6186866401833293
60.99600146484339,-3.412780643262634,-1.342716485674635,8.77837067001068,-0.13997784584844813,0.989278135511157,0.013786220297460353,1.5812329443598034,-0.0018006372288297129,0.5610098786997421,0.3318929450266335,-0.42109517392530654,0.5739431768167526,-0.618648750520666
61.006001464843386,-3.4126989071916736,-1.3428778439386575,8.778689739279578,-0.13985756567657925,0.9892908935320996,0.013834556212162362,1.5813011866433049,-0.001598775038383085,0.5610224650553586,0.331925585813094,-0.42107368829464253,0.5739793497429366,-0.6186108608580029
61.016001464843384,-3.4126171711207136,-1.3430392022026798,8.779008808548475,-0.13973728550471037,0.9893036515530425,0.013882892126864369,1.5813694289268063,-0.0013969128479364573,0.5610350514109752,0.3319582265995545,-0.4210522026639786,0.5740155226691206,-0.6185729711953396
61.02600146484338,-3.412535435049753,-1.343200560466702,8.779327877817373,-0.1396170053328415,0.9893164095739851,0.013931228041566376,1.5814376712103078,-0.0011950506574898295,0.5610476377665917,0.33199086738601497,-0.42103071703331457,0.5740516955953047,-0.6185350815326763
61.03600146484338,-3.412453698978793,-1.3433619187307246,8.77964694708627,-0.13949672516097264,0.9893291675949278,0.013979563956268383,1.5815059134938092,-0.0009931884670432017,0.5610602241222082,0.33202350817247545,-0.4210092314026506,0.5740878685214887,-0.6184971918700132
61.04600146484338,-3.4123719629078324,-1.343523276994747,8.779966016355168,-0.13937644498910376,0.9893419256158705,0.014027899870970391,1.5815741557773106,-0.000791326276596574,0.5610728104778248,0.3320561489589359,-0.42098774577198667,0.5741240414476727,-0.6184593022073499
61.056001464843376,-3.4122902268368724,-1.3436846352587692,8.780285085624065,-0.13925616481723488,0.9893546836368132,0.014076235785672398,1.581642398060812,-0.0005894640861499462,0.5610853968334413,0.3320887897453964,-0.42096626014132266,0.5741602143738568,-0.6184214125446866
61.066001464843374,-3.412208490765912,-1.3438459935227915,8.780604154892963,-0.13913588464536603,0.9893674416577559,0.014124571700374405,1.5817106403443135,-0.0003876018957033184,0.5610979831890579,0.3321214305318569,-0.4209447745106587,0.5741963873000407,-0.6183835228820235
61.07600146484337,-3.4121267546949516,-1.344007351786814,8.78092322416186,-0.13901560447349715,0.9893801996786986,0.014172907615076412,1.5817788826278147,-0.0001857397052566906,0.5611105695446744,0.33215407131831737,-0.4209232888799947,0.5742325602262248,-0.6183456332193602
61.08600146484337,-3.4120450186239912,-1.3441687100508364,8.781242293430758,-0.13889532430162826,0.9893929576996414,0.014221243529778419,1.5818471249113162,1.6122485189937197e-05,0.5611231559002909,0.33218671210477785,-0.42090180324933074,0.5742687331524088,-0.6183077435566969
61.09600146484337,-3.4119632825530313,-1.3443300683148587,8.781561362699655,-0.13877504412975938,0.9894057157205841,0.014269579444480427,1.5819153671948176,0.00021798467563656498,0.5611357422559075,0.33221935289123833,-0.42088031761866673,0.5743049060785929,-0.6182698538940338
61.10600146484337,-3.411881546482071,-1.3444914265788812,8.78188043196855,-0.13865476395789053,0.9894184737415268,0.014317915359182434,1.581983609478319,0.00041984686608319277,0.561148328611524,0.33225199367769886,-0.4208588319880028,0.5743410790047768,-0.6182319642313705
61.116001464843364,-3.4117998104111105,-1.3446527848429035,8.782199501237448,-0.13853448378602165,0.9894312317624695,0.014366251273884441,1.5820518517618205,0.0006217090565298206,0.5611609149671406,0.33228463446415935,-0.42083734635733877,0.5743772519309609,-0.6181940745687072
61.12600146484336,-3.4117180743401505,-1.3448141431069258,8.782518570506346,-0.13841420361415277,0.9894439897834122,0.014414587188586448,1.582120094045322,0.0008235712469764483,0.5611735013227571,0.3323172752506198,-0.4208158607266748,0.5744134248571449,-0.6181561849060441
61.13600146484336,-3.41163633826919,-1.3449755013709483,8.782837639775243,-0.13829392344228392,0.9894567478043549,0.014462923103288457,1.5821883363288234,0.0010254334374230761,0.5611860876783736,0.3323499160370803,-0.42079437509601086,0.5744495977833289,-0.6181182952433808
61.14600146484336,-3.4115546021982297,-1.3451368596349706,8.78315670904414,-0.13817364327041504,0.9894695058252976,0.014511259017990464,1.5822565786123248,0.001227295627869704,0.5611986740339902,0.3323825568235408,-0.42077288946534686,0.5744857707095129,-0.6180804055807175
61.15600146484336,-3.4114728661272693,-1.345298217898993,8.783475778313038,-0.13805336309854616,0.9894822638462404,0.01455959493269247,1.5823248208958263,0.0014291578183163317,0.5612112603896067,0.33241519761000127,-0.4207514038346829,0.574521943635697,-0.6180425159180544
61.166001464843355,-3.4113911300563093,-1.3454595761630155,8.783794847581936,-0.13793308292667728,0.9894950218671831,0.014607930847394477,1.5823930631793275,0.0016310200087629595,0.5612238467452232,0.33244783839646175,-0.4207299182040189,0.5745581165618809,-0.6180046262553911
61.17600146484335,-3.411309393985349,-1.3456209344270378,8.784113916850833,-0.13781280275480842,0.9895077798881258,0.014656266762096486,1.582461305462829,0.0018328821992095873,0.5612364331008398,0.33248047918292223,-0.42070843257335494,0.574594289488065,-0.6179667365927278
61.18600146484335,-3.4112276579143885,-1.34578229269106,8.78443298611973,-0.13769252258293954,0.9895205379090685,0.014704602676798493,1.5825295477463304,0.002034744389656215,0.5612490194564563,0.3325131199693827,-0.42068694694269093,0.574630462414249,-0.6179288469300647
61.19600146484335,-3.411145921843428,-1.3459436509550826,8.784752055388628,-0.13757224241107066,0.9895332959300112,0.0147529385915005,1.5825977900298318,0.002236606580102843,0.5612616058120729,0.3325457607558432,-0.420665461312027,0.574666635340433,-0.6178909572674014
61.20600146484335,-3.411064185772468,-1.346105009219105,8.785071124657525,-0.1374519622392018,0.9895460539509539,0.014801274506202507,1.5826660323133332,0.0024384687705494706,0.5612741921676894,0.33257840154230367,-0.420643975681363,0.5747028082666171,-0.6178530676047381
61.216001464843345,-3.4109824497015078,-1.3462663674831272,8.785390193926423,-0.13733168206733293,0.9895588119718965,0.014849610420904515,1.5827342745968347,0.0026403309609960984,0.5612867785233059,0.33261104232876415,-0.420622490050699,0.5747389811928011,-0.617815177942075
61.22600146484334,-3.4109007136305474,-1.3464277257471495,8.78570926319532,-0.13721140189546405,0.9895715699928392,0.014897946335606522,1.5828025168803361,0.0028421931514427262,0.5612993648789225,0.33264368311522463,-0.42060100442003506,0.5747751541189852,-0.6177772882794117
61.23600146484334,-3.410818977559587,-1.346589084011172,8.786028332464218,-0.13709112172359517,0.989584328013782,0.014946282250308529,1.5828707591638376,0.003044055341889354,0.561311951234539,0.3326763239016851,-0.42057951878937105,0.5748113270451691,-0.6177393986167484
61.24600146484334,-3.410737241488627,-1.3467504422751944,8.786347401733115,-0.1369708415517263,0.9895970860347247,0.014994618165010536,1.5829390014473388,0.003245917532335982,0.5613245375901555,0.3327089646881456,-0.4205580331587071,0.5748474999713532,-0.6177015089540853
61.25600146484334,-3.4106555054176666,-1.3469118005392167,8.786666471002011,-0.13685056137985743,0.9896098440556674,0.015042954079712545,1.5830072437308402,0.0034477797227826096,0.5613371239457721,0.33274160547460613,-0.4205365475280431,0.5748836728975372,-0.617663619291422
61.266001464843335,-3.410573769346706,-1.3470731588032392,8.786985540270909,-0.13673028120798855,0.9896226020766101,0.015091289994414551,1.5830754860143417,0.0036496419132292374,0.5613497103013886,0.3327742462610666,-0.42051506189737914,0.5749198458237212,-0.6176257296287587
61.27600146484333,-3.410492033275746,-1.3472345170672615,8.787304609539806,-0.1366100010361197,0.9896353600975528,0.015139625909116558,1.5831437282978431,0.003851504103675865,0.5613622966570052,0.3328068870475271,-0.42049357626671513,0.5749560187499052,-0.6175878399660956
61.28600146484333,-3.410410297204786,-1.3473958753312838,8.787623678808703,-0.13648972086425082,0.9896481181184955,0.015187961823818565,1.5832119705813446,0.004053366294122493,0.5613748830126217,0.33283952783398757,-0.4204720906360512,0.5749921916760893,-0.6175499503034323
61.29600146484333,-3.4103285611338254,-1.3475572335953063,8.787942748077601,-0.13636944069238194,0.9896608761394382,0.015236297738520572,1.583280212864846,0.004255228484569121,0.5613874693682382,0.33287216862044805,-0.4204506050053872,0.5750283646022732,-0.617512060640769
61.30600146484333,-3.410246825062865,-1.3477185918593286,8.788261817346498,-0.13624916052051306,0.989673634160381,0.01528463365322258,1.5833484551483474,0.0044570906750157485,0.5614000557238548,0.33290480940690853,-0.4204291193747232,0.5750645375284573,-0.6174741709781059
61.316001464843325,-3.4101650889919046,-1.347879950123351,8.788580886615396,-0.1361288803486442,0.9896863921813237,0.015332969567924588,1.5834166974318489,0.004658952865462376,0.5614126420794713,0.332937450193369,-0.42040763374405926,0.5751007104546413,-0.6174362813154426
61.32600146484332,-3.4100833529209447,-1.3480413083873735,8.788899955884293,-0.13600860017677532,0.9896991502022664,0.015381305482626595,1.5834849397153503,0.004860815055909004,0.5614252284350879,0.3329700909798295,-0.42038614811339525,0.5751368833808254,-0.6173983916527793
61.33600146484332,-3.4100016168499843,-1.3482026666513958,8.78921902515319,-0.13588832000490644,0.9897119082232091,0.015429641397328601,1.5835531819988515,0.005062677246355632,0.5614378147907044,0.33300273176628997,-0.4203646624827313,0.5751730563070093,-0.6173605019901162
61.34600146484332,-3.409919880779024,-1.348364024915418,8.789538094422088,-0.1357680398330376,0.9897246662441518,0.01547797731203061,1.583621424282353,0.00526453943680226,0.5614504011463209,0.33303537255275045,-0.4203431768520673,0.5752092292331934,-0.6173226123274529
61.35600146484332,-3.4098381447080635,-1.3485253831794406,8.789857163690986,-0.1356477596611687,0.9897374242650945,0.015526313226732617,1.5836896665658544,0.0054664016272488875,0.5614629875019375,0.33306801333921093,-0.42032169122140334,0.5752454021593774,-0.6172847226647896
61.366001464843315,-3.4097564086371035,-1.348686741443463,8.790176232959883,-0.13552747948929983,0.9897501822860372,0.015574649141434624,1.5837579088493559,0.005668263817695515,0.561475573857554,0.3331006541256714,-0.42030020559073933,0.5752815750855614,-0.6172468330021265
61.37600146484331,-3.409674672566143,-1.3488480997074852,8.79049530222878,-0.13540719931743095,0.9897629403069799,0.01562298505613663,1.5838261511328573,0.005870126008142143,0.5614881602131705,0.3331332949121319,-0.4202787199600754,0.5753177480117454,-0.6172089433394632
61.38600146484331,-3.4095929364951827,-1.3490094579715075,8.790814371497678,-0.1352869191455621,0.9897756983279227,0.01567132097083864,1.5838943934163587,0.006071988198588771,0.5615007465687871,0.3331659356985924,-0.4202572343294114,0.5753539209379295,-0.6171710536767999
61.39600146484331,-3.4095112004242223,-1.34917081623553,8.791133440766576,-0.13516663897369322,0.9897884563488654,0.015719656885540646,1.5839626356998602,0.006273850389035399,0.5615133329244036,0.3331985764850529,-0.4202357486987474,0.5753900938641135,-0.6171331640141368
61.40600146484331,-3.4094294643532623,-1.3493321744995523,8.791452510035471,-0.13504635880182433,0.9898012143698081,0.01576799280024265,1.5840308779833616,0.006475712579482026,0.5615259192800202,0.3332312172715134,-0.42021426306808346,0.5754262667902975,-0.6170952743514735
61.416001464843305,-3.409347728282302,-1.3494935327635746,8.791771579304369,-0.13492607862995548,0.9898139723907508,0.01581632871494466,1.5840991202668628,0.006677574769928654,0.5615385056356367,0.33326385805797387,-0.42019277743741945,0.5754624397164816,-0.6170573846888102
61.4260014648433,-3.4092659922113415,-1.3496548910275972,8.792090648573266,-0.1348057984580866,0.9898267304116934,0.01586466462964667,1.5841673625503643,0.006879436960375282,0.5615510919912532,0.33329649884443435,-0.4201712918067555,0.5754986126426656,-0.6170194950261471
61.4360014648433,-3.409184256140381,-1.3498162492916195,8.792409717842164,-0.13468551828621772,0.9898394884326361,0.015913000544348674,1.5842356048338657,0.00708129915082191,0.5615636783468698,0.33332913963089483,-0.4201498061760915,0.5755347855688496,-0.6169816053634838
61.4460014648433,-3.409102520069421,-1.3499776075556418,8.792728787111061,-0.13456523811434884,0.9898522464535788,0.015961336459050682,1.5843038471173672,0.0072831613412685375,0.5615762647024863,0.3333617804173553,-0.42012832054542754,0.5755709584950336,-0.6169437157008205
61.4560014648433,-3.4090207839984608,-1.3501389658196643,8.793047856379959,-0.13444495794248,0.9898650044745216,0.01600967237375269,1.5843720894008686,0.007485023531715165,0.5615888510581029,0.3333944212038158,-0.4201068349147636,0.5756071314212177,-0.6169058260381574
61.466001464843295,-3.4089390479275004,-1.3503003240836866,8.793366925648856,-0.1343246777706111,0.9898777624954643,0.016058008288454696,1.58444033168437,0.007686885722161793,0.5616014374137194,0.3334270619902763,-0.4200853492840996,0.5756433043474016,-0.6168679363754941
61.47600146484329,-3.40885731185654,-1.350461682347709,8.793685994917753,-0.13420439759874223,0.989890520516407,0.016106344203156705,1.5845085739678715,0.007888747912608421,0.5616140237693359,0.33345970277673675,-0.4200638636534356,0.5756794772735857,-0.6168300467128308
61.48600146484329,-3.40877557578558,-1.3506230406117314,8.794005064186651,-0.13408411742687337,0.9899032785373497,0.016154680117858713,1.584576816251373,0.008090610103055049,0.5616266101249525,0.33349234356319724,-0.4200423780227716,0.5757156501997697,-0.6167921570501677
61.49600146484329,-3.4086938397146196,-1.3507843988757537,8.794324133455548,-0.1339638372550045,0.9899160365582924,0.01620301603256072,1.5846450585348744,0.008292472293501676,0.561639196480569,0.3335249843496577,-0.42002089239210766,0.5757518231259537,-0.6167542673875044
61.50600146484329,-3.408612103643659,-1.350945757139776,8.794643202724446,-0.1338435570831356,0.9899287945792351,0.016251351947262724,1.5847133008183756,0.008494334483948304,0.5616517828361856,0.3335576251361182,-0.41999940676144365,0.5757879960521377,-0.6167163777248411
61.516001464843285,-3.408530367572699,-1.3511071154037986,8.794962271993343,-0.13372327691126676,0.9899415526001778,0.016299687861964736,1.584781543101877,0.008696196674394932,0.5616643691918021,0.3335902659225787,-0.4199779211307797,0.5758241689783218,-0.616678488062178
61.52600146484328,-3.408448631501739,-1.3512684736678209,8.79528134126224,-0.13360299673939788,0.9899543106211206,0.01634802377666674,1.5848497853853785,0.00889805886484156,0.5616769555474186,0.33362290670903916,-0.4199564355001157,0.5758603419045057,-0.6166405983995147
61.53600146484328,-3.4083668954307784,-1.3514298319318432,8.795600410531138,-0.133482716567529,0.9899670686420633,0.016396359691368746,1.58491802766888,0.009099921055288188,0.5616895419030352,0.33365554749549964,-0.41993494986945173,0.5758965148306898,-0.6166027087368514
61.54600146484328,-3.408285159359818,-1.3515911901958655,8.795919479800034,-0.13336243639566012,0.989979826663006,0.016444695606070755,1.5849862699523813,0.009301783245734815,0.5617021282586517,0.3336881882819602,-0.4199134642387878,0.5759326877568738,-0.6165648190741883
61.55600146484328,-3.4082034232888576,-1.351752548459888,8.796238549068931,-0.13324215622379126,0.9899925846839487,0.016493031520772763,1.5850545122358828,0.009503645436181443,0.5617147146142683,0.33372082906842065,-0.4198919786081238,0.5759688606830579,-0.616526929411525
61.566001464843275,-3.4081216872178977,-1.3519139067239103,8.796557618337829,-0.13312187605192238,0.9900053427048914,0.01654136743547477,1.5851227545193842,0.009705507626628071,0.5617273009698848,0.33375346985488114,-0.4198704929774598,0.5760050336092419,-0.6164890397488617
61.57600146484327,-3.4080399511469373,-1.3520752649879326,8.796876687606726,-0.1330015958800535,0.9900181007258341,0.016589703350176777,1.5851909968028857,0.009907369817074699,0.5617398873255013,0.3337861106413416,-0.4198490073467958,0.5760412065354259,-0.6164511500861986
61.58600146484327,-3.407958215075977,-1.3522366232519551,8.797195756875624,-0.13288131570818465,0.9900308587467768,0.016638039264878786,1.5852592390863869,0.010109232007521327,0.5617524736811179,0.3338187514278021,-0.41982752171613186,0.57607737946161,-0.6164132604235353
61.59600146484327,-3.4078764790050164,-1.3523979815159775,8.797514826144521,-0.13276103553631577,0.9900436167677195,0.01668637517958079,1.5853274813698883,0.010311094197967954,0.5617650600367344,0.3338513922142626,-0.41980603608546785,0.5761135523877939,-0.616375370760872
61.60600146484327,-3.4077947429340565,-1.3525593397799998,8.797833895413419,-0.1326407553644469,0.9900563747886623,0.0167347110942828,1.5853957236533898,0.010512956388414582,0.561777646392351,0.33388403300072306,-0.4197845504548039,0.576149725313978,-0.6163374810982089
61.616001464843265,-3.407713006863096,-1.3527206980440223,8.798152964682316,-0.13252047519257804,0.990069132809605,0.01678304700898481,1.5854639659368912,0.01071481857886121,0.5617902327479675,0.33391667378718354,-0.41976306482413994,0.576185898240162,-0.6162995914355456
61.62600146484326,-3.4076312707921357,-1.3528820563080446,8.798472033951214,-0.13240019502070915,0.9900818908305477,0.016831382923686813,1.5855322082203926,0.010916680769307838,0.561802819103584,0.333949314573644,-0.41974157919347593,0.576222071166346,-0.6162617017728823
61.63600146484326,-3.4075495347211753,-1.353043414572067,8.798791103220111,-0.13227991484884027,0.9900946488514903,0.01687971883838882,1.585600450503894,0.011118542959754465,0.5618154054592005,0.3339819553601045,-0.419720093562812,0.57625824409253,-0.6162238121102191
61.64600146484326,-3.4074677986502153,-1.3532047728360894,8.799110172489009,-0.1321596346769714,0.990107406872433,0.01692805475309083,1.5856686927873955,0.011320405150201093,0.5618279918148171,0.334014596146565,-0.41969860793214797,0.5762944170187141,-0.6161859224475559
61.65600146484326,-3.407386062579255,-1.3533661311001117,8.799429241757906,-0.13203935450510254,0.9901201648933757,0.016976390667792836,1.585736935070897,0.011522267340647721,0.5618405781704336,0.33404723693302546,-0.419677122301484,0.576330589944898,-0.6161480327848926
61.666001464843255,-3.4073043265082945,-1.353527489364134,8.799748311026804,-0.13191907433323366,0.9901329229143184,0.01702472658249484,1.5858051773543984,0.011724129531094349,0.5618531645260502,0.33407987771948594,-0.41965563667082,0.5763667628710821,-0.6161101431222294
61.67600146484325,-3.4072225904373346,-1.3536888476281566,8.800067380295701,-0.13179879416136478,0.9901456809352612,0.01707306249719685,1.5858734196378996,0.011925991721540977,0.5618657508816667,0.3341125185059464,-0.41963415104015606,0.5764029357972661,-0.6160722534595662
61.68600146484325,-3.407140854366374,-1.3538502058921789,8.800386449564598,-0.13167851398949593,0.9901584389562039,0.017121398411898858,1.585941661921401,0.012127853911987611,0.5618783372372832,0.33414515929240696,-0.41961266540949205,0.5764391087234502,-0.6160343637969029
61.69600146484325,-3.4070591182954137,-1.3540115641562012,8.800705518833494,-0.13155823381762705,0.9901711969771466,0.017169734326600863,1.5860099042049025,0.01232971610243424,0.5618909235928998,0.33417780007886744,-0.4195911797788281,0.5764752816496341,-0.6159964741342397
61.70600146484325,-3.4069773822244533,-1.3541729224202235,8.801024588102392,-0.13143795364575817,0.9901839549980893,0.017218070241302872,1.586078146488404,0.012531578292880867,0.5619035099485163,0.3342104408653279,-0.41956969414816414,0.5765114545758182,-0.6159585844715765
61.716001464843245,-3.4068956461534934,-1.354334280684246,8.801343657371289,-0.13131767347388928,0.990196713019032,0.01726640615600488,1.5861463887719054,0.012733440483327495,0.5619160963041329,0.3342430816517884,-0.41954820851750013,0.5765476275020022,-0.6159206948089132
61.72600146484324,-3.406813910082533,-1.3544956389482683,8.801662726640187,-0.13119739330202043,0.9902094710399747,0.017314742070706886,1.5862146310554068,0.012935302673774123,0.5619286826597494,0.3342757224382489,-0.4195267228868362,0.5765838004281862,-0.61588280514625
61.73600146484324,-3.4067321740115726,-1.3546569972122906,8.801981795909084,-0.13107711313015155,0.9902222290609174,0.017363077985408894,1.5862828733389083,0.01313716486422075,0.5619412690153659,0.33430836322470936,-0.41950523725617217,0.5766199733543702,-0.6158449154835868
61.74600146484324,-3.406650437940612,-1.3548183554763131,8.802300865177981,-0.13095683295828267,0.9902349870818601,0.017411413900110903,1.5863511156224097,0.013339027054667378,0.5619538553709825,0.33434100401116984,-0.4194837516255082,0.5766561462805543,-0.6158070258209235
61.75600146484324,-3.406568701869652,-1.3549797137403354,8.802619934446879,-0.13083655278641382,0.9902477451028029,0.017459749814812908,1.586419357905911,0.013540889245114006,0.561966441726599,0.3343736447976303,-0.4194622659948442,0.5766923192067384,-0.6157691361582603
61.766001464843235,-3.406486965798692,-1.3551410720043577,8.802939003715776,-0.13071627261454494,0.9902605031237456,0.017508085729514917,1.5864876001894124,0.013742751435560634,0.5619790280822156,0.3344062855840908,-0.41944078036418025,0.5767284921329223,-0.6157312464955971
61.77600146484323,-3.4064052297277314,-1.3553024302683803,8.803258072984674,-0.13059599244267606,0.9902732611446883,0.017556421644216925,1.5865558424729138,0.013944613626007261,0.5619916144378321,0.3344389263705513,-0.41941929473351625,0.5767646650591064,-0.6156933568329338
61.78600146484323,-3.406323493656771,-1.3554637885324026,8.803577142253571,-0.13047571227080718,0.990286019165631,0.01760475755891893,1.5866240847564153,0.01414647581645389,0.5620042007934486,0.33447156715701176,-0.4193978091028523,0.5768008379852904,-0.6156554671702706
61.79600146484323,-3.406241757585811,-1.3556251467964249,8.803896211522469,-0.13035543209893832,0.9902987771865737,0.017653093473620936,1.5866923270399167,0.014348338006900517,0.5620167871490652,0.33450420794347224,-0.41937632347218834,0.5768370109114744,-0.6156175775076074
61.80600146484323,-3.4061600215148506,-1.3557865050604474,8.804215280791366,-0.13023515192706944,0.9903115352075164,0.017701429388322948,1.5867605693234181,0.014550200197347145,0.5620293735046817,0.3345368487299327,-0.41935483784152433,0.5768731838376584,-0.6155796878449441
61.816001464843225,-3.4060782854438902,-1.3559478633244697,8.804534350060264,-0.13011487175520056,0.990324293228459,0.017749765303024953,1.5868288116069196,0.014752062387793773,0.5620419598602983,0.3345694895163932,-0.4193333522108604,0.5769093567638425,-0.6155417981822809
61.82600146484322,-3.40599654937293,-1.356109221588492,8.804853419329161,-0.1299945915833317,0.9903370512494019,0.017798101217726958,1.586897053890421,0.0149539245782404,0.5620545462159148,0.3346021303028537,-0.41931186658019637,0.5769455296900264,-0.6155039085196177
61.83600146484322,-3.40591481330197,-1.3562705798525143,8.805172488598059,-0.12987431141146283,0.9903498092703445,0.017846437132428967,1.5869652961739225,0.015155786768687028,0.5620671325715313,0.3346347710893142,-0.4192903809495324,0.5769817026162105,-0.6154660188569544
61.84600146484322,-3.4058330772310095,-1.3564319381165368,8.805491557866954,-0.12975403123959395,0.9903625672912872,0.017894773047130975,1.5870335384574237,0.015357648959133656,0.5620797189271478,0.3346674118757747,-0.4192688953188684,0.5770178755423945,-0.6154281291942912
61.85600146484322,-3.405751341160049,-1.3565932963805591,8.805810627135852,-0.12963375106772507,0.9903753253122299,0.01794310896183298,1.5871017807409251,0.015559511149580284,0.5620923052827644,0.3347000526622352,-0.41924740968820445,0.5770540484685786,-0.615390239531628
61.866001464843215,-3.4056696050890887,-1.3567546546445814,8.80612969640475,-0.12951347089585621,0.9903880833331726,0.01799144487653499,1.5871700230244266,0.01576137334002691,0.562104891638381,0.33473269344869566,-0.4192259240575405,0.5770902213947625,-0.6153523498689647
61.87600146484321,-3.4055878690181287,-1.356916012908604,8.806448765673647,-0.12939319072398733,0.9904008413541153,0.018039780791236998,1.587238265307928,0.01596323553047354,0.5621174779939975,0.33476533423515614,-0.4192044384268765,0.5771263943209466,-0.6153144602063015
61.88600146484321,-3.4055061329471683,-1.3570773711726263,8.806767834942544,-0.12927291055211845,0.990413599375058,0.018088116705939003,1.5873065075914294,0.016165097720920167,0.562130064349614,0.3347979750216166,-0.41918295279621254,0.5771625672471306,-0.6152765705436383
61.89600146484321,-3.405424396876208,-1.3572387294366486,8.807086904211442,-0.1291526303802496,0.9904263573960008,0.01813645262064101,1.5873747498749309,0.016366959911366795,0.5621426507052305,0.3348306158080771,-0.41916146716554853,0.5771987401733146,-0.615238680880975
61.90600146484321,-3.4053426608052475,-1.357400087700671,8.80740597348034,-0.12903235020838072,0.9904391154169435,0.01818478853534302,1.5874429921584323,0.016568822101813423,0.5621552370608471,0.3348632565945376,-0.4191399815348846,0.5772349130994986,-0.6152007912183118
61.916001464843205,-3.4052609247342875,-1.3575614459646934,8.807725042749237,-0.12891207003651184,0.9904518734378862,0.018233124450045025,1.5875112344419338,0.01677068429226005,0.5621678234164637,0.33489589738099806,-0.41911849590422057,0.5772710860256827,-0.6151629015556486
61.9260014648432,-3.405179188663327,-1.3577228042287157,8.808044112018134,-0.12879178986464296,0.9904646314588289,0.01828146036474703,1.587579476725435,0.016972546482706678,0.5621804097720802,0.33492853816745854,-0.4190970102735566,0.5773072589518667,-0.6151250118929853
61.9360014648432,-3.4050974525923667,-1.3578841624927382,8.808363181287032,-0.1286715096927741,0.9904773894797716,0.018329796279449043,1.5876477190089364,0.017174408673153306,0.5621929961276967,0.334961178953919,-0.4190755246428926,0.5773434318780507,-0.6150871222303221
61.9460014648432,-3.4050157165214063,-1.3580455207567605,8.808682250555929,-0.12855122952090522,0.9904901475007143,0.018378132194151048,1.5877159612924379,0.017376270863599934,0.5622055824833132,0.3349938197403795,-0.41905403901222865,0.5773796048042348,-0.6150492325676589
61.9560014648432,-3.4049339804504464,-1.3582068790207829,8.809001319824826,-0.12843094934903634,0.990502905521657,0.018426468108853053,1.5877842035759393,0.01757813305404656,0.5622181688389298,0.33502646052684,-0.4190325533815647,0.5774157777304187,-0.6150113429049956
61.966001464843195,-3.404852244379486,-1.3583682372848054,8.809320389093724,-0.1283106691771675,0.9905156635425997,0.01847480402355506,1.5878524458594407,0.01777999524449319,0.5622307551945463,0.33505910131330047,-0.4190110677509007,0.5774519506566028,-0.6149734532423324
61.97600146484319,-3.4047705083085256,-1.3585295955488277,8.809639458362621,-0.1281903890052986,0.9905284215635425,0.01852313993825707,1.5879206881429422,0.017981857434939817,0.5622433415501629,0.33509174209976095,-0.41898958212023674,0.5774881235827868,-0.6149355635796692
61.98600146484319,-3.404688772237565,-1.35869095381285,8.809958527631517,-0.12807010883342973,0.9905411795844852,0.018571475852959075,1.5879889304264436,0.018183719625386445,0.5622559279057794,0.3351243828862215,-0.41896809648957273,0.5775242965089709,-0.6148976739170059
61.99600146484319,-3.404607036166605,-1.3588523120768725,8.810277596900415,-0.12794982866156085,0.9905539376054279,0.018619811767661084,1.588057172709945,0.018385581815833073,0.5622685142613959,0.33515702367268196,-0.4189466108589088,0.5775604694351548,-0.6148597842543427
62.00600146484319,-3.404525300095645,-1.3590136703408948,8.810596666169312,-0.127829548489692,0.9905666956263706,0.018668147682363093,1.5881254149934465,0.0185874440062797,0.5622811006170125,0.33518966445914244,-0.41892512522824477,0.5775966423613389,-0.6148218945916795
62.016001464843185,-3.4044435640246844,-1.3591750286049171,8.81091573543821,-0.12770926831782312,0.9905794536473133,0.018716483597065098,1.5881936572769477,0.01878930619672633,0.562293686972629,0.3352223052456029,-0.4189036395975808,0.5776328152875229,-0.6147840049290162
62.02600146484318,-3.404361827953724,-1.3593363868689394,8.811234804707107,-0.12758898814595424,0.990592211668256,0.018764819511767106,1.5882618995604492,0.018991168387172956,0.5623062733282456,0.3352549460320634,-0.41888215396691686,0.5776689882137069,-0.614746115266353
62.03600146484318,-3.404280091882764,-1.359497745132962,8.811553873976004,-0.12746870797408538,0.9906049696891986,0.018813155426469115,1.5883301418439506,0.019193030577619584,0.5623188596838621,0.3352875868185239,-0.41886066833625285,0.5777051611398909,-0.6147082256036898
62.04600146484318,-3.4041983558118036,-1.3596591033969843,8.811872943244902,-0.1273484278022165,0.9906177277101414,0.01886149134117112,1.588398384127452,0.01939489276806621,0.5623314460394786,0.33532022760498437,-0.4188391827055889,0.577741334066075,-0.6146703359410265
62.05600146484318,-3.4041166197408432,-1.3598204616610066,8.8121920125138,-0.12722814763034762,0.9906304857310841,0.018909827255873125,1.5884666264109535,0.01959675495851284,0.5623440323950951,0.33535286839144485,-0.4188176970749249,0.5777775069922589,-0.6146324462783633
62.066001464843175,-3.404034883669883,-1.359981819925029,8.812511081782697,-0.12710786745847874,0.9906432437520268,0.018958163170575137,1.588534868694455,0.019798617148959467,0.5623566187507117,0.3353855091779053,-0.41879621144426094,0.577813679918443,-0.6145945566157001
62.07600146484317,-3.403953147598923,-1.3601431781890514,8.812830151051594,-0.1269875872866099,0.9906560017729695,0.019006499085277143,1.5886031109779564,0.020000479339406095,0.5623692051063283,0.3354181499643658,-0.4187747258135969,0.577849852844627,-0.6145566669530368
62.08600146484317,-3.4038714115279625,-1.3603045364530737,8.813149220320492,-0.126867307114741,0.9906687597939122,0.019054834999979148,1.5886713532614578,0.020202341529852723,0.5623817914619448,0.3354507907508263,-0.418753240182933,0.577886025770811,-0.6145187772903736
62.09600146484317,-3.403789675457002,-1.3604658947170962,8.81346828958939,-0.12674702694287213,0.9906815178148549,0.019103170914681156,1.588739595544959,0.02040420372029935,0.5623943778175613,0.33548343153728677,-0.41873175455226896,0.5779221986969951,-0.6144808876277104
62.10600146484317,-3.4037079393860417,-1.3606272529811185,8.813787358858287,-0.12662674677100327,0.9906942758357976,0.019151506829383165,1.5888078378284605,0.02060606591074598,0.5624069641731778,0.33551607232374725,-0.418710268921605,0.5779583716231791,-0.6144429979650471
62.116001464843166,-3.4036262033150817,-1.3607886112451408,8.814106428127184,-0.1265064665991344,0.9907070338567403,0.01919984274408517,1.588876080111962,0.020807928101192606,0.5624195505287944,0.33554871311020773,-0.41868878329094106,0.5779945445493632,-0.6144051083023839
62.12600146484316,-3.4035444672441213,-1.3609499695091634,8.814425497396082,-0.1263861864272655,0.9907197918776831,0.01924817865878718,1.5889443223954633,0.021009790291639234,0.562432136884411,0.3355813538966682,-0.41866729766027705,0.5780307174755471,-0.6143672186397207
62.13600146484316,-3.403462731173161,-1.3611113277731857,8.814744566664977,-0.12626590625539663,0.9907325498986258,0.019296514573489187,1.5890125646789648,0.021211652482085862,0.5624447232400275,0.33561399468312875,-0.4186458120296131,0.5780668904017312,-0.6143293289770574
62.14600146484316,-3.4033809951022005,-1.361272686037208,8.815063635933875,-0.12614562608352778,0.9907453079195685,0.019344850488191193,1.5890808069624662,0.02141351467253249,0.562457309595644,0.3356466354695892,-0.4186243263989491,0.5781030633279152,-0.6142914393143942
62.15600146484316,-3.4032992590312405,-1.3614340443012303,8.815382705202772,-0.1260253459116589,0.9907580659405112,0.0193931864028932,1.5891490492459677,0.021615376862979117,0.5624698959512605,0.3356792762560497,-0.41860284076828513,0.5781392362540992,-0.614253549651731
62.166001464843156,-3.40321752296028,-1.3615954025652528,8.81570177447167,-0.12590506573979002,0.9907708239614539,0.01944152231759521,1.5892172915294691,0.021817239053425745,0.5624824823068771,0.3357119170425102,-0.4185813551376211,0.5781754091802832,-0.6142156599890677
62.176001464843154,-3.4031357868893197,-1.361756760829275,8.816020843740567,-0.12578478556792116,0.9907835819823966,0.019489858232297215,1.5892855338129706,0.022019101243872373,0.5624950686624937,0.33574455782897067,-0.41855986950695717,0.5782115821064673,-0.6141777703264045
62.18600146484315,-3.4030540508183593,-1.3619181190932974,8.816339913009465,-0.12566450539605228,0.9907963400033393,0.01953819414699922,1.5893537760964718,0.022220963434319,0.5625076550181102,0.33577719861543115,-0.4185383838762932,0.5782477550326512,-0.6141398806637413
62.19600146484315,-3.4029723147473994,-1.36207947735732,8.816658982278362,-0.1255442252241834,0.9908090980242821,0.019586530061701232,1.5894220183799732,0.02242282562476563,0.5625202413737267,0.33580983940189163,-0.4185168982456292,0.5782839279588353,-0.614101991001078
62.20600146484315,-3.402890578676439,-1.3622408356213422,8.81697805154726,-0.12542394505231452,0.9908218560452248,0.019634865976403237,1.5894902606634747,0.022624687815212256,0.5625328277293432,0.3358424801883521,-0.41849541261496526,0.5783201008850193,-0.6140641013384148
62.216001464843146,-3.4028088426054786,-1.3624021938853645,8.817297120816157,-0.12530366488044567,0.9908346140661675,0.019683201891105243,1.589558502946976,0.022826550005658884,0.5625454140849598,0.3358751209748126,-0.41847392698430125,0.5783562738112034,-0.6140262116757516
62.226001464843144,-3.402727106534518,-1.362563552149387,8.817616190085054,-0.1251833847085768,0.9908473720871102,0.01973153780580725,1.5896267452304775,0.023028412196105512,0.5625580004405764,0.33590776176127307,-0.4184524413536373,0.5783924467373873,-0.6139883220130883
62.23600146484314,-3.402645370463558,-1.3627249104134094,8.817935259353952,-0.1250631045367079,0.9908601301080529,0.01977987372050926,1.589694987513979,0.02323027438655214,0.5625705867961929,0.33594040254773355,-0.4184309557229733,0.5784286196635714,-0.6139504323504251
62.24600146484314,-3.402563634392598,-1.3628862686774317,8.81825432862285,-0.12494282436483904,0.9908728881289955,0.019828209635211265,1.5897632297974804,0.023432136576998767,0.5625831731518094,0.33597304333419403,-0.41840947009230933,0.5784647925897554,-0.6139125426877619
62.25600146484314,-3.4024818983216374,-1.3630476269414542,8.818573397891747,-0.12482254419297018,0.9908856461499382,0.019876545549913274,1.5898314720809819,0.023633998767445395,0.5625957595074259,0.3360056841206545,-0.4183879844616453,0.5785009655159394,-0.6138746530250986
62.266001464843136,-3.4024001622506774,-1.3632089852054765,8.818892467160644,-0.1247022640211013,0.990898404170881,0.019924881464615282,1.589899714364483,0.023835860957892023,0.5626083458630425,0.336038324907115,-0.41836649883098137,0.5785371384421234,-0.6138367633624354
62.276001464843134,-3.402318426179717,-1.3633703434694988,8.819211536429542,-0.12458198384923243,0.9909111621918237,0.019973217379317287,1.5899679566479845,0.02403772314833865,0.562620932218659,0.33607096569357553,-0.4183450132003174,0.5785733113683075,-0.6137988736997722
62.28600146484313,-3.4022366901087566,-1.3635317017335213,8.819530605698437,-0.12446170367736356,0.9909239202127664,0.020021553294019296,1.590036198931486,0.02423958533878528,0.5626335185742756,0.336103606480036,-0.4183235275696534,0.5786094842944915,-0.6137609840371089
62.29600146484313,-3.402154954037796,-1.3636930599975436,8.819849674967335,-0.12434142350549468,0.9909366782337091,0.020069889208721305,1.5901044412149874,0.024441447529231906,0.5626461049298921,0.3361362472664965,-0.41830204193898946,0.5786456572206755,-0.6137230943744457
62.30600146484313,-3.4020732179668363,-1.363854418261566,8.820168744236232,-0.1242211433336258,0.9909494362546518,0.02011822512342331,1.5901726834984888,0.024643309719678534,0.5626586912855086,0.33616888805295697,-0.41828055630832545,0.5786818301468596,-0.6136852047117825
62.316001464843126,-3.401991481895876,-1.3640157765255883,8.82048781350513,-0.12410086316175695,0.9909621942755945,0.02016656103812532,1.5902409257819903,0.024845171910125162,0.5626712776411251,0.33620152883941745,-0.4182590706776615,0.5787180030730436,-0.6136473150491192
62.326001464843124,-3.4019097458249155,-1.3641771347896108,8.820806882774027,-0.12398058298988807,0.9909749522965372,0.020214896952827327,1.5903091680654917,0.02504703410057179,0.5626838639967418,0.33623416962587793,-0.4182375850469975,0.5787541759992276,-0.613609425386456
62.33600146484312,-3.401828009753955,-1.364338493053633,8.821125952042925,-0.12386030281801919,0.9909877103174799,0.020263232867529332,1.5903774103489932,0.025248896291018418,0.5626964503523583,0.3362668104123384,-0.41821609941633353,0.5787903489254116,-0.6135715357237927
62.34600146484312,-3.401746273682995,-1.3644998513176554,8.821445021311822,-0.12374002264615032,0.9910004683384227,0.020311568782231337,1.5904456526324946,0.025450758481465045,0.5627090367079748,0.3362994511987989,-0.4181946137856696,0.5788265218515957,-0.6135336460611295
62.35600146484312,-3.4016645376120347,-1.364661209581678,8.82176409058072,-0.12361974247428145,0.9910132263593654,0.02035990469693335,1.5905138949159958,0.025652620671911673,0.5627216230635913,0.3363320919852594,-0.41817312815500557,0.5788626947777796,-0.6134957563984663
62.366001464843116,-3.4015828015410743,-1.3648225678457002,8.822083159849617,-0.12349946230241257,0.9910259843803081,0.020408240611635355,1.5905821371994973,0.0258544828623583,0.5627342094192078,0.33636473277171985,-0.4181516425243416,0.5788988677039637,-0.613457866735803
62.376001464843114,-3.401501065470114,-1.3649839261097225,8.822402229118515,-0.12337918213054369,0.9910387424012508,0.02045657652633736,1.5906503794829987,0.02605634505280493,0.5627467957748244,0.33639737355818033,-0.4181301568936776,0.5789350406301477,-0.6134199770731398
62.38600146484311,-3.401419329399154,-1.365145284373745,8.822721298387412,-0.12325890195867484,0.9910515004221935,0.02050491244103937,1.5907186217665001,0.026258207243251556,0.562759382130441,0.3364300143446408,-0.41810867126301365,0.5789712135563317,-0.6133820874104766
62.39600146484311,-3.4013375933281935,-1.3653066426377674,8.82304036765631,-0.12313862178680596,0.9910642584431362,0.020553248355741377,1.5907868640500016,0.026460069433698184,0.5627719684860575,0.3364626551311013,-0.41808718563234964,0.5790073864825157,-0.6133441977478133
62.40600146484311,-3.401255857257233,-1.3654680009017897,8.823359436925207,-0.12301834161493708,0.9910770164640789,0.020601584270443382,1.590855106333503,0.026661931624144812,0.562784554841674,0.3364952959175618,-0.4180657000016857,0.5790435594086998,-0.6133063080851501
62.416001464843106,-3.4011741211862727,-1.3656293591658122,8.823678506194105,-0.12289806144306821,0.9910897744850217,0.02064992018514539,1.5909233486170045,0.02686379381459144,0.5627971411972905,0.33652793670402226,-0.4180442143710217,0.5790797323348837,-0.6132684184224869
62.426001464843104,-3.4010923851153128,-1.3657907174298345,8.823997575463,-0.12277778127119934,0.9911025325059644,0.0206982560998474,1.590991590900506,0.027065656005038068,0.5628097275529071,0.3365605774904828,-0.41802272874035773,0.5791159052610678,-0.6132305287598236
62.4360014648431,-3.4010106490443524,-1.3659520756938568,8.824316644731898,-0.12265750109933046,0.9911152905269071,0.020746592014549405,1.5910598331840071,0.027267518195484695,0.5628223139085237,0.3365932182769433,-0.4180012431096938,0.5791520781872518,-0.6131926390971604
62.4460014648431,-3.400928912973392,-1.3661134339578793,8.824635714000795,-0.1225372209274616,0.9911280485478497,0.020794927929251413,1.5911280754675086,0.027469380385931323,0.5628349002641402,0.33662585906340375,-0.41797975747902977,0.5791882511134359,-0.6131547494344972
62.4560014648431,-3.4008471769024315,-1.3662747922219016,8.824954783269693,-0.12241694075559273,0.9911408065687924,0.020843263843953422,1.59119631775101,0.02767124257637795,0.5628474866197567,0.33665849984986423,-0.4179582718483658,0.5792244240396199,-0.6131168597718339
62.466001464843096,-3.4007654408314716,-1.366436150485924,8.82527385253859,-0.12229666058372385,0.9911535645897351,0.020891599758655427,1.5912645600345114,0.02787310476682458,0.5628600729753732,0.3366911406363247,-0.4179367862177018,0.5792605969658039,-0.6130789701091707
62.476001464843094,-3.400683704760511,-1.3665975087499462,8.825592921807488,-0.12217638041185497,0.9911663226106778,0.020939935673357432,1.5913328023180129,0.028074966957271207,0.5628726593309898,0.3367237814227852,-0.41791530058703785,0.579296769891988,-0.6130410804465075
62.48600146484309,-3.400601968689551,-1.3667588670139688,8.825911991076385,-0.1220561002399861,0.9911790806316205,0.020988271588059444,1.5914010446015143,0.028276829147717834,0.5628852456866064,0.3367564222092457,-0.41789381495637384,0.5793329428181719,-0.6130031907838442
62.49600146484309,-3.4005202326185904,-1.366920225277991,8.826231060345282,-0.12193582006811723,0.9911918386525633,0.02103660750276145,1.5914692868850158,0.028478691338164462,0.5628978320422229,0.33678906299570616,-0.4178723293257099,0.579369115744356,-0.612965301121181
62.50600146484309,-3.4004384965476304,-1.3670815835420134,8.82655012961418,-0.12181553989624835,0.991204596673506,0.021084943417463455,1.5915375291685172,0.02868055352861109,0.5629104183978394,0.33682170378216664,-0.4178508436950459,0.57940528867054,-0.6129274114585178
62.516001464843086,-3.40035676047667,-1.367242941806036,8.826869198883077,-0.12169525972437949,0.9912173546944487,0.021133279332165463,1.5916057714520186,0.02888241571905771,0.5629230047534559,0.3368543445686271,-0.41782935806438193,0.579441461596724,-0.6128895217958545
62.526001464843084,-3.4002750244057096,-1.3674043000700582,8.827188268151975,-0.12157497955251062,0.9912301127153914,0.021181615246867472,1.5916740137355199,0.02908427790950434,0.5629355911090724,0.3368869853550876,-0.417807872433718,0.579477634522908,-0.6128516321331913
62.53600146484308,-3.400193288334749,-1.3675656583340805,8.827507337420872,-0.12145469938064174,0.9912428707363341,0.021229951161569477,1.5917422560190213,0.029286140099950966,0.5629481774646891,0.3369196261415481,-0.41778638680305397,0.5795138074490921,-0.6128137424705281
62.54600146484308,-3.4001115522637892,-1.367727016598103,8.82782640668977,-0.12133441920877286,0.9912556287572768,0.021278287076271486,1.5918104983025227,0.029488002290397594,0.5629607638203056,0.33695226692800856,-0.41776490117239,0.579549980375276,-0.6127758528078648
62.55600146484308,-3.400029816192829,-1.3678883748621253,8.828145475958667,-0.12121413903690399,0.9912683867782195,0.021326622990973494,1.5918787405860242,0.029689864480844222,0.5629733501759221,0.33698490771446904,-0.417743415541726,0.5795861533014601,-0.6127379631452016
62.566001464843076,-3.3999480801218684,-1.3680497331261476,8.828464545227565,-0.12109385886503513,0.9912811447991623,0.0213749589056755,1.5919469828695256,0.02989172667129085,0.5629859365315386,0.3370175485009296,-0.41772192991106205,0.5796223262276441,-0.6127000734825384
62.576001464843074,-3.399866344050908,-1.3682110913901702,8.82878361449646,-0.12097357869316624,0.991293902820105,0.021423294820377508,1.592015225153027,0.030093588861737477,0.5629985228871551,0.33705018928739006,-0.41770044428039804,0.5796584991538282,-0.6126621838198751
62.58600146484307,-3.399784607979948,-1.3683724496541925,8.829102683765358,-0.12085329852129738,0.9913066608410477,0.021471630735079517,1.5920834674365285,0.030295451052184105,0.5630111092427718,0.33708283007385054,-0.4176789586497341,0.5796946720800121,-0.6126242941572119
62.59600146484307,-3.3997028719089877,-1.3685338079182148,8.829421753034255,-0.12073301834942851,0.9913194188619904,0.021519966649781522,1.59215170972003,0.030497313242630733,0.5630236955983883,0.337115470860311,-0.41765747301907014,0.5797308450061962,-0.6125864044945487
62.60600146484307,-3.3996211358380273,-1.3686951661822373,8.829740822303153,-0.12061273817755963,0.9913321768829331,0.021568302564483527,1.5922199520035312,0.03069917543307736,0.5630362819540048,0.3371481116467715,-0.4176359873884061,0.5797670179323802,-0.6125485148318854
62.616001464843066,-3.399539399767067,-1.3688565244462596,8.83005989157205,-0.12049245800569075,0.9913449349038758,0.02161663847918554,1.5922881942870326,0.03090103762352399,0.5630488683096213,0.337180752433232,-0.4176145017577422,0.5798031908585642,-0.6125106251692222
62.626001464843064,-3.399457663696107,-1.369017882710282,8.830378960840948,-0.12037217783382188,0.9913576929248185,0.021664974393887544,1.592356436570534,0.031102899813970616,0.5630614546652378,0.33721339321969246,-0.41759301612707816,0.5798393637847482,-0.612472735506559
62.63600146484306,-3.3993759276251465,-1.3691792409743042,8.830698030109845,-0.12025189766195302,0.9913704509457613,0.02171331030858955,1.5924246788540355,0.031304762004417244,0.5630740410208545,0.33724603400615294,-0.4175715304964142,0.5798755367109323,-0.6124348458438957
62.64600146484306,-3.399294191554186,-1.3693405992383267,8.831017099378743,-0.12013161749008414,0.991383208966704,0.021761646223291558,1.592492921137537,0.03150662419486387,0.563086627376471,0.3372786747926134,-0.4175500448657502,0.5799117096371164,-0.6123969561812325
62.65600146484306,-3.3992124554832257,-1.369501957502349,8.83133616864764,-0.12001133731821527,0.9913959669876466,0.021809982137993567,1.5925611634210384,0.0317084863853105,0.5630992137320875,0.3373113155790739,-0.41752855923508625,0.5799478825633003,-0.6123590665185693
62.666001464843056,-3.3991307194122657,-1.3696633157663713,8.831655237916538,-0.1198910571463464,0.9914087250085893,0.02185831805269557,1.5926294057045398,0.03191034857575713,0.563111800087704,0.3373439563655344,-0.41750707360442224,0.5799840554894844,-0.612321176855906
62.676001464843054,-3.3990489833413053,-1.3698246740303939,8.831974307185435,-0.11977077697447752,0.991421483029532,0.021906653967397584,1.5926976479880413,0.032112210766203755,0.5631243864433205,0.33737659715199486,-0.4174855879737583,0.5800202284156684,-0.6122832871932428
62.68600146484305,-3.398967247270345,-1.3699860322944162,8.832293376454333,-0.11965049680260864,0.9914342410504747,0.02195498988209959,1.5927658902715427,0.03231407295665038,0.5631369727989372,0.33740923793845534,-0.41746410234309433,0.5800564013418524,-0.6122453975305796
62.69600146484305,-3.3988855111993845,-1.3701473905584385,8.83261244572323,-0.11953021663073977,0.9914469990714174,0.022003325796801594,1.592834132555044,0.03251593514709701,0.5631495591545537,0.3374418787249158,-0.4174426167124303,0.5800925742680364,-0.6122075078679163
62.70600146484305,-3.3988037751284246,-1.370308748822461,8.832931514992127,-0.11940993645887091,0.9914597570923601,0.0220516617115036,1.5929023748385454,0.03271779733754364,0.5631621455101702,0.3374745195113763,-0.4174211310817664,0.5801287471942205,-0.6121696182052531
62.716001464843046,-3.398722039057464,-1.3704701070864833,8.833250584261025,-0.11928965628700203,0.9914725151133029,0.02209999762620561,1.5929706171220468,0.032919659527990267,0.5631747318657867,0.33750716029783684,-0.41739964545110236,0.5801649201204044,-0.6121317285425899
62.726001464843044,-3.3986403029865038,-1.3706314653505056,8.83356965352992,-0.11916937611513316,0.9914852731342456,0.022148333540907617,1.5930388594055482,0.033121521718436894,0.5631873182214032,0.3375398010842973,-0.4173781598204384,0.5802010930465885,-0.6120938388799266
62.73600146484304,-3.3985585669155434,-1.3707928236145281,8.833888722798818,-0.1190490959432643,0.9914980311551883,0.02219666945560962,1.5931071016890497,0.03332338390888352,0.5631999045770197,0.3375724418707578,-0.4173566741897744,0.5802372659727725,-0.6120559492172634
62.74600146484304,-3.3984768308445834,-1.3709541818785504,8.834207792067716,-0.11892881577139541,0.991510789176131,0.022245005370311634,1.5931753439725511,0.03352524609933015,0.5632124909326364,0.3376050826572183,-0.41733518855911045,0.5802734388989566,-0.6120180595546002
62.75600146484304,-3.398395094773623,-1.3711155401425728,8.834526861336613,-0.11880853559952653,0.9915235471970737,0.02229334128501364,1.5932435862560526,0.03372710828977678,0.5632250772882529,0.33763772344367876,-0.4173137029284465,0.5803096118251405,-0.6119801698919369
62.766001464843036,-3.3983133587026626,-1.3712768984065953,8.83484593060551,-0.11868825542765767,0.9915363052180164,0.022341677199715644,1.593311828539554,0.033928970480223405,0.5632376636438694,0.33767036423013924,-0.4172922172977825,0.5803457847513246,-0.6119422802292737
62.776001464843034,-3.398231622631702,-1.3714382566706176,8.835164999874408,-0.1185679752557888,0.9915490632389591,0.022390013114417656,1.5933800708230552,0.03413083267067003,0.5632502499994859,0.3377030050165997,-0.41727073166711853,0.5803819576775086,-0.6119043905666105
62.78600146484303,-3.3981498865607422,-1.3715996149346399,8.835484069143305,-0.11844769508391992,0.9915618212599019,0.02243834902911966,1.5934483131065567,0.03433269486111666,0.5632628363551024,0.3377356458030602,-0.4172492460364545,0.5804181306036926,-0.6118665009039472
62.79600146484303,-3.398068150489782,-1.3717609731986622,8.835803138412203,-0.11832741491205105,0.9915745792808446,0.022486684943821666,1.593516555390058,0.03453455705156329,0.5632754227107191,0.3377682865895207,-0.41722776040579057,0.5804543035298766,-0.611828611241284
62.80600146484303,-3.3979864144188214,-1.3719223314626847,8.8361222076811,-0.11820713474018218,0.9915873373017873,0.02253502085852368,1.5935847976735595,0.03473641924200992,0.5632880090663356,0.33780092737598116,-0.41720627477512656,0.5804904764560607,-0.6117907215786208
62.816001464843026,-3.3979046783478615,-1.372083689726707,8.836441276949998,-0.1180868545683133,0.99160009532273,0.022583356773225684,1.593653039957061,0.034938281432456544,0.5633005954219521,0.33783356816244164,-0.4171847891444626,0.5805266493822447,-0.6117528319159575
62.826001464843024,-3.397822942276901,-1.3722450479907293,8.836760346218895,-0.11796657439644442,0.9916128533436727,0.02263169268792769,1.5937212822405624,0.03514014362290317,0.5633131817775686,0.3378662089489021,-0.4171633035137986,0.5805628223084287,-0.6117149422532943
62.83600146484302,-3.3977412062059407,-1.3724064062547519,8.837079415487793,-0.11784629422457557,0.9916256113646154,0.022680028602629694,1.5937895245240639,0.0353420058133498,0.5633257681331851,0.3378988497353626,-0.41714181788313465,0.5805989952346128,-0.611677052590631
62.84600146484302,-3.3976594701349803,-1.3725677645187742,8.83739848475669,-0.11772601405270669,0.991638369385558,0.022728364517331706,1.5938577668075653,0.03554386800379643,0.5633383544888018,0.3379314905218231,-0.4171203322524707,0.5806351681607967,-0.6116391629279678
62.85600146484302,-3.3975777340640203,-1.3727291227827965,8.837717554025588,-0.11760573388083781,0.9916511274065007,0.02277670043203371,1.5939260090910667,0.035745730194243056,0.5633509408444183,0.33796413130828357,-0.4170988466218067,0.5806713410869808,-0.6116012732653046
62.866001464843016,-3.39749599799306,-1.372890481046819,8.838036623294485,-0.11748545370896894,0.9916638854274435,0.022825036346735716,1.593994251374568,0.03594759238468968,0.5633635272000348,0.3379967720947441,-0.41707736099114273,0.5807075140131648,-0.6115633836026413
62.876001464843014,-3.3974142619220995,-1.3730518393108413,8.83835569256338,-0.11736517353710008,0.9916766434483862,0.02287337226143773,1.5940624936580694,0.03614945457513631,0.5633761135556513,0.3380294128812046,-0.4170558753604787,0.5807436869393489,-0.6115254939399781
62.88600146484301,-3.397332525851139,-1.3732131975748636,8.838674761832278,-0.1172448933652312,0.9916894014693289,0.022921708176139734,1.5941307359415708,0.03635131676558294,0.5633886999112678,0.33806205366766506,-0.41703438972981477,0.5807798598655328,-0.6114876042773149
62.89600146484301,-3.397250789780179,-1.3733745558388861,8.838993831101176,-0.11712461319336231,0.9917021594902716,0.02297004409084174,1.5941989782250723,0.03655317895602957,0.5634012862668845,0.33809469445412554,-0.41701290409915076,0.5808160327917169,-0.6114497146146516
62.90600146484301,-3.3971690537092187,-1.3735359141029084,8.839312900370073,-0.11700433302149346,0.9917149175112143,0.02301838000554375,1.5942672205085737,0.036755041146476194,0.563413872622501,0.338127335240586,-0.4169914184684868,0.5808522057179009,-0.6114118249519884
62.916001464843006,-3.3970873176382583,-1.3736972723669307,8.83963196963897,-0.11688405284962458,0.991727675532157,0.023066715920245756,1.5943354627920752,0.03695690333692282,0.5634264589781175,0.3381599760270465,-0.41696993283782285,0.5808883786440849,-0.6113739352893252
62.926001464843004,-3.397005581567298,-1.373858630630953,8.839951038907868,-0.1167637726777557,0.9917404335530997,0.02311505183494776,1.5944037050755766,0.03715876552736945,0.563439045333734,0.338192616813507,-0.41694844720715885,0.5809245515702689,-0.6113360456266619
62.936001464843,-3.396923845496338,-1.3740199888949756,8.840270108176766,-0.11664349250588683,0.9917531915740425,0.023163387749649773,1.594471947359078,0.03736062771781608,0.5634516316893505,0.33822525759996747,-0.4169269615764949,0.580960724496453,-0.6112981559639987
62.946001464843,-3.3968421094253776,-1.3741813471589979,8.840589177445663,-0.11652321233401797,0.9917659495949852,0.02321172366435178,1.5945401896425793,0.037562489908262706,0.5634642180449672,0.33825789838642795,-0.4169054759458309,0.5809968974226369,-0.6112602663013355
62.956001464843,-3.396760373354417,-1.3743427054230202,8.84090824671456,-0.11640293216214909,0.9917787076159279,0.023260059579053784,1.5946084319260807,0.03776435209870933,0.5634768044005837,0.3382905391728884,-0.41688399031516693,0.581033070348821,-0.6112223766386722
62.966001464842996,-3.3966786372834568,-1.3745040636870427,8.841227315983458,-0.11628265199028022,0.9917914656368706,0.02330839549375579,1.5946766742095821,0.03796621428915596,0.5634893907562002,0.3383231799593489,-0.4168625046845029,0.581069243275005,-0.611184486976009
62.976001464842994,-3.396596901212497,-1.374665421951065,8.841546385252355,-0.11616237181841135,0.9918042236578133,0.0233567314084578,1.5947449164930836,0.03816807647960259,0.5635019771118167,0.3383558207458094,-0.41684101905383897,0.581105416201189,-0.6111465973133458
62.98600146484299,-3.3965151651415364,-1.3748267802150873,8.841865454521253,-0.11604209164654247,0.991816981678756,0.023405067323159806,1.594813158776585,0.03836993867004922,0.5635145634674332,0.33838846153226987,-0.41681953342317496,0.581141589127373,-0.6111087076506825
62.99600146484299,-3.396433429070576,-1.3749881384791098,8.84218452379015,-0.11592181147467359,0.9918297396996987,0.02345340323786181,1.5948814010600865,0.038571800860495845,0.5635271498230497,0.33842110231873035,-0.416798047792511,0.5811777620535571,-0.6110708179880193
63.00600146484299,-3.3963516929996156,-1.3751494967431321,8.842503593059048,-0.11580153130280472,0.9918424977206415,0.023501739152563823,1.594949643343588,0.03877366305094247,0.5635397361786664,0.33845374310519083,-0.41677656216184705,0.5812139349797412,-0.611032928325356
63.01600146484299,-3.3962699569286556,-1.3753108550071544,8.842822662327944,-0.11568125113093586,0.9918552557415842,0.02355007506726583,1.5950178856270893,0.0389755252413891,0.5635523225342829,0.33848638389165137,-0.41675507653118304,0.5812501079059251,-0.6109950386626928
63.026001464842984,-3.3961882208576952,-1.375472213271177,8.843141731596841,-0.11556097095906698,0.9918680137625269,0.023598410981967834,1.5950861279105908,0.03917738743183573,0.5635649088898994,0.33851902467811185,-0.4167335909005191,0.5812862808321092,-0.6109571490000296
63.03600146484298,-3.396106484786735,-1.3756335715351993,8.843460800865738,-0.11544069078719811,0.9918807717834696,0.023646746896669846,1.595154370194092,0.039379249622282356,0.5635774952455159,0.3385516654645723,-0.4167121052698551,0.5813224537582932,-0.6109192593373663
63.04600146484298,-3.3960247487157744,-1.3757949297992216,8.843779870134636,-0.11532041061532924,0.9918935298044123,0.02369508281137185,1.5952226124775934,0.039581111812728983,0.5635900816011324,0.3385843062510328,-0.41669061963919113,0.5813586266844772,-0.6108813696747031
63.05600146484298,-3.3959430126448145,-1.375956288063244,8.844098939403533,-0.11520013044346036,0.991906287825355,0.023743418726073856,1.595290854761095,0.03978297400317561,0.5636026679567491,0.3386169470374933,-0.4166691340085271,0.5813947996106612,-0.6108434800120399
63.06600146484298,-3.395861276573854,-1.3761176463272664,8.84441800867243,-0.11507985027159148,0.9919190458462976,0.023791754640775868,1.5953590970445963,0.03998483619362224,0.5636152543123656,0.33864958782395377,-0.41664764837786317,0.5814309725368453,-0.6108055903493766
63.076001464842975,-3.3957795405028937,-1.3762790045912887,8.844737077941328,-0.11495957009972262,0.9919318038672403,0.023840090555477873,1.5954273393280978,0.04018669838406887,0.5636278406679821,0.33868222861041425,-0.4166261627471992,0.5814671454630292,-0.6107677006867134
63.08600146484297,-3.3956978044319333,-1.3764403628553112,8.845056147210226,-0.11483928992785375,0.9919445618881831,0.02388842647017988,1.5954955816115992,0.040388560574515495,0.5636404270235986,0.33871486939687473,-0.4166046771165352,0.5815033183892133,-0.6107298110240502
63.09600146484297,-3.3956160683609733,-1.3766017211193335,8.845375216479123,-0.11471900975598487,0.9919573199091258,0.02393676238488189,1.5955638238951007,0.04059042276496212,0.5636530133792151,0.3387475101833352,-0.41658319148587125,0.5815394913153973,-0.610691921361387
63.10600146484297,-3.395534332290013,-1.3767630793833558,8.84569428574802,-0.114598729584116,0.9919700779300685,0.023985098299583896,1.595632066178602,0.04079228495540875,0.5636655997348318,0.3387801509697957,-0.41656170585520724,0.5815756642415814,-0.6106540316987237
63.11600146484297,-3.3954525962190525,-1.3769244376473782,8.846013355016918,-0.11447844941224714,0.9919828359510112,0.0240334342142859,1.5957003084621033,0.04099414714585538,0.5636781860904483,0.33881279175625617,-0.4165402202245433,0.5816118371677653,-0.6106161420360605
63.126001464842965,-3.395370860148092,-1.3770857959114007,8.846332424285816,-0.11435816924037825,0.9919955939719539,0.024081770128987906,1.5957685507456048,0.041196009336302006,0.5636907724460648,0.33884543254271665,-0.4165187345938793,0.5816480100939494,-0.6105782523733972
63.13600146484296,-3.395289124077132,-1.377247154175423,8.846651493554713,-0.11423788906850937,0.9920083519928966,0.024130106043689918,1.5958367930291062,0.041397871526748634,0.5637033588016813,0.33887807332917713,-0.4164972489632153,0.5816841830201334,-0.610540362710734
63.14600146484296,-3.3952073880061717,-1.3774085124394453,8.84697056282361,-0.11411760889664051,0.9920211100138393,0.024178441958391923,1.5959050353126076,0.04159973371719526,0.5637159451572978,0.3389107141156376,-0.4164757633325513,0.5817203559463174,-0.6105024730480708
63.15600146484296,-3.3951256519352113,-1.3775698707034678,8.847289632092508,-0.11399732872477164,0.9920338680347821,0.02422677787309393,1.595973277596109,0.04180159590764189,0.5637285315129145,0.33894335490209815,-0.41645427770188737,0.5817565288725014,-0.6104645833854075
63.16600146484296,-3.395043915864251,-1.3777312289674901,8.847608701361404,-0.11387704855290276,0.9920466260557248,0.02427511378779594,1.5960415198796105,0.04200345809808852,0.563741117868531,0.33897599568855863,-0.4164327920712234,0.5817927017986855,-0.6104266937227443
63.176001464842955,-3.394962179793291,-1.3778925872315124,8.847927770630301,-0.1137567683810339,0.9920593840766675,0.024323449702497946,1.596109762163112,0.042205320288535145,0.5637537042241475,0.3390086364750191,-0.4164113064405594,0.5818288747248695,-0.6103888040600811
63.18600146484295,-3.3948804437223306,-1.378053945495535,8.848246839899199,-0.11363648820916503,0.9920721420976102,0.02437178561719995,1.5961780044466134,0.04240718247898177,0.563766290579764,0.3390412772614796,-0.41638982080989545,0.5818650476510535,-0.6103509143974178
63.19600146484295,-3.39479870765137,-1.3782153037595573,8.848565909168096,-0.11351620803729615,0.9920849001185529,0.024420121531901963,1.5962462467301148,0.0426090446694284,0.5637788769353805,0.33907391804794007,-0.41636833517923144,0.5819012205772376,-0.6103130247347546
63.20600146484295,-3.3947169715804097,-1.3783766620235796,8.848884978436994,-0.11339592786542727,0.9920976581394956,0.024468457446603968,1.596314489013616,0.04281090685987503,0.563791463290997,0.33910655883440055,-0.4163468495485675,0.5819373935034216,-0.6102751350720914
63.21600146484295,-3.39463523550945,-1.378538020287602,8.849204047705891,-0.1132756476935584,0.9921104161604383,0.024516793361305973,1.5963827312971175,0.043012769050321656,0.5638040496466137,0.33913919962086103,-0.4163253639179035,0.5819735664296056,-0.6102372454094281
63.226001464842945,-3.3945534994384894,-1.3786993785516244,8.849523116974789,-0.11315536752168953,0.992123174181381,0.024565129276007985,1.596450973580619,0.043214631240768284,0.5638166360022302,0.3391718404073215,-0.4163038782872395,0.5820097393557896,-0.6101993557467649
63.23600146484294,-3.394471763367529,-1.3788607368156467,8.849842186243686,-0.11303508734982065,0.9921359322023238,0.02461346519070999,1.5965192158641204,0.04341649343121491,0.5638292223578467,0.339204481193782,-0.4162823926565755,0.5820459122819737,-0.6101614660841017
63.24600146484294,-3.3943900272965686,-1.379022095079669,8.850161255512583,-0.11291480717795178,0.9921486902232665,0.024661801105411996,1.5965874581476218,0.04361835562166154,0.5638418087134632,0.3392371219802425,-0.41626090702591156,0.5820820852081576,-0.6101235764214384
63.25600146484294,-3.3943082912256086,-1.3791834533436915,8.850480324781481,-0.11279452700608292,0.9921614482442092,0.024710137020114,1.5966557004311233,0.04382021781210817,0.5638543950690798,0.33926976276670295,-0.4162394213952476,0.5821182581343417,-0.6100856867587752
63.26600146484294,-3.394226555154648,-1.3793448116077138,8.850799394050378,-0.11267424683421404,0.9921742062651518,0.024758472934816013,1.5967239427146247,0.044022080002554795,0.5638669814246964,0.33930240355316343,-0.4162179357645836,0.5821544310605257,-0.610047797096112
63.276001464842935,-3.394144819083688,-1.3795061698717361,8.851118463319276,-0.11255396666234516,0.9921869642860945,0.024806808849518018,1.5967921849981261,0.04422394219300142,0.5638795677803129,0.3393350443396239,-0.41619645013391965,0.5821906039867097,-0.6100099074334487
63.28600146484293,-3.3940630830127274,-1.3796675281357587,8.851437532588173,-0.11243368649047629,0.9921997223070372,0.024855144764220023,1.5968604272816274,0.04442580438344805,0.5638921541359294,0.3393676851260844,-0.41617496450325564,0.5822267769128937,-0.6099720177707855
63.29600146484293,-3.3939813469417675,-1.379828886399781,8.85175660185707,-0.11231340631860742,0.9922124803279799,0.024903480678922035,1.5969286695651288,0.04462766657389468,0.5639047404915459,0.3394003259125449,-0.4161534788725917,0.5822629498390778,-0.6099341281081223
63.30600146484293,-3.393899610870807,-1.3799902446638033,8.852075671125966,-0.11219312614673854,0.9922252383489227,0.02495181659362404,1.5969969118486302,0.044829528764341306,0.5639173268471624,0.3394329666990054,-0.4161319932419277,0.5822991227652617,-0.609896238445459
63.31600146484293,-3.3938178747998466,-1.3801516029278258,8.852394740394864,-0.11207284597486968,0.9922379963698654,0.025000152508326046,1.5970651541321317,0.045031390954787934,0.5639299132027791,0.3394656074854659,-0.4161105076112637,0.5823352956914458,-0.6098583487827958
63.326001464842925,-3.3937361387288862,-1.380312961191848,8.852713809663761,-0.11195256580300081,0.9922507543908081,0.025048488423028058,1.5971333964156331,0.04523325314523456,0.5639424995583956,0.3394982482719264,-0.41608902198059977,0.5823714686176298,-0.6098204591201326
63.33600146484292,-3.3936544026579263,-1.3804743194558704,8.853032878932659,-0.11183228563113193,0.9922635124117508,0.025096824337730063,1.5972016386991346,0.04543511533568119,0.5639550859140121,0.33953088905838685,-0.41606753634993576,0.5824076415438139,-0.6097825694574693
63.34600146484292,-3.393572666586966,-1.380635677719893,8.853351948201556,-0.11171200545926305,0.9922762704326935,0.025145160252432068,1.597269880982636,0.04563697752612782,0.5639676722696286,0.33956352984484733,-0.4160460507192718,0.5824438144699979,-0.6097446797948061
63.35600146484292,-3.3934909305160055,-1.3807970359839152,8.853671017470454,-0.1115917252873942,0.9922890284536362,0.02519349616713408,1.5973381232661374,0.045838839716574445,0.5639802586252451,0.3395961706313078,-0.4160245650886078,0.5824799873961819,-0.6097067901321429
63.36600146484292,-3.393409194445045,-1.3809583942479375,8.853990086739351,-0.11147144511552531,0.9923017864745789,0.025241832081836085,1.5974063655496389,0.04604070190702107,0.5639928449808618,0.3396288114177683,-0.41600307945794385,0.582516160322366,-0.6096689004694796
63.376001464842915,-3.393327458374085,-1.38111975251196,8.854309156008249,-0.11135116494365643,0.9923145444955217,0.02529016799653809,1.59747460783314,0.0462425640974677,0.5640054313364783,0.3396614522042288,-0.41598159382727984,0.5825523332485499,-0.6096310108068164
63.38600146484291,-3.3932457223031247,-1.3812811107759824,8.854628225277146,-0.11123088477178757,0.9923273025164644,0.025338503911240096,1.5975428501166415,0.04644442628791433,0.5640180176920948,0.33969409299068926,-0.4159601081966159,0.582588506174734,-0.6095931211441532
63.39600146484291,-3.3931639862321643,-1.3814424690400047,8.854947294546044,-0.1111106045999187,0.9923400605374071,0.025386839825942108,1.597611092400143,0.046646288478360956,0.5640306040477113,0.33972673377714974,-0.4159386225659519,0.582624679100918,-0.6095552314814899
63.40600146484291,-3.3930822501612043,-1.3816038273040272,8.855266363814941,-0.11099032442804982,0.9923528185583498,0.025435175740644113,1.5976793346836444,0.046848150668807584,0.5640431904033278,0.3397593745636102,-0.4159171369352879,0.582660852027102,-0.6095173418188267
63.41600146484291,-3.393000514090244,-1.3817651855680495,8.855585433083839,-0.11087004425618094,0.9923655765792925,0.025483511655346118,1.5977475769671459,0.04705001285925421,0.5640557767589445,0.3397920153500707,-0.41589565130462397,0.582697024953286,-0.6094794521561635
63.426001464842905,-3.3929187780192835,-1.3819265438320718,8.855904502352736,-0.11074976408431209,0.9923783346002352,0.02553184757004813,1.5978158192506473,0.04725187504970084,0.564068363114561,0.3398246561365312,-0.41587416567395996,0.5827331978794701,-0.6094415624935002
63.4360014648429,-3.392837041948323,-1.3820879020960941,8.856223571621634,-0.1106294839124432,0.9923910926211779,0.025580183484750135,1.5978840615341487,0.04745373724014747,0.5640809494701775,0.33985729692299166,-0.415852680043296,0.582769370805654,-0.609403672830837
63.4460014648429,-3.392755305877363,-1.3822492603601166,8.856542640890531,-0.11050920374057432,0.9924038506421206,0.02562851939945214,1.5979523038176502,0.047655599430594095,0.564093535825794,0.3398899377094522,-0.415831194412632,0.5828055437318381,-0.6093657831681738
63.4560014648429,-3.392673569806403,-1.382410618624139,8.856861710159427,-0.11038892356870546,0.9924166086630634,0.025676855314154153,1.5980205461011514,0.04785746162104072,0.5641061221814105,0.3399225784959127,-0.41580970878196805,0.5828417166580221,-0.6093278935055105
63.4660014648429,-3.3925918337354424,-1.3825719768881612,8.857180779428324,-0.11026864339683659,0.992429366684006,0.025725191228856158,1.5980887883846528,0.04805932381148735,0.5641187085370271,0.33995521928237316,-0.41578822315130404,0.5828778895842062,-0.6092900038428473
63.476001464842895,-3.392510097664482,-1.3827333351521838,8.857499848697222,-0.11014836322496771,0.9924421247049487,0.025773527143558163,1.5981570306681543,0.04826118600193398,0.5641312948926437,0.33998786006883364,-0.4157667375206401,0.5829140625103901,-0.6092521141801841
63.48600146484289,-3.392428361593522,-1.382894693416206,8.857818917966119,-0.11002808305309884,0.9924548827258914,0.025821863058260175,1.5982252729516557,0.048463048192380606,0.5641438812482602,0.3400205008552941,-0.41574525188997613,0.5829502354365742,-0.6092142245175208
63.49600146484289,-3.3923466255225616,-1.3830560516802284,8.858137987235017,-0.10990780288122998,0.9924676407468341,0.02587019897296218,1.5982935152351572,0.048664910382827234,0.5641564676038767,0.3400531416417546,-0.4157237662593121,0.5829864083627582,-0.6091763348548576
63.50600146484289,-3.392264889451601,-1.383217409944251,8.858457056503914,-0.1097875227093611,0.9924803987677768,0.025918534887664185,1.5983617575186586,0.04886677257327386,0.5641690539594932,0.3400857824282151,-0.41570228062864817,0.5830225812889422,-0.6091384451921944
63.51600146484289,-3.392183153380641,-1.3833787682082732,8.858776125772811,-0.10966724253749222,0.9924931567887195,0.02596687080236619,1.59842999980216,0.04906863476372049,0.5641816403151098,0.34011842321467556,-0.41568079499798416,0.5830587542151262,-0.6091005555295311
63.526001464842885,-3.392101417309681,-1.3835401264722955,8.859095195041709,-0.10954696236562335,0.9925059148096623,0.026015206717068202,1.5984982420856615,0.04927049695416712,0.5641942266707264,0.34015106400113604,-0.4156593093673202,0.5830949271413103,-0.6090626658668679
63.53600146484288,-3.3920196812387204,-1.383701484736318,8.859414264310606,-0.10942668219375448,0.992518672830605,0.026063542631770208,1.598566484369163,0.049472359144613745,0.5642068130263429,0.3401837047875965,-0.4156378237366562,0.5831311000674944,-0.6090247762042047
63.54600146484288,-3.39193794516776,-1.3838628430003403,8.859733333579504,-0.1093064020218856,0.9925314308515477,0.026111878546472213,1.5986347266526642,0.04967422133506037,0.5642193993819594,0.340216345574057,-0.41561633810599224,0.5831672729936783,-0.6089868865415414
63.55600146484288,-3.3918562090967996,-1.3840242012643627,8.860052402848401,-0.10918612185001673,0.9925441888724904,0.026160214461174225,1.5987029689361656,0.049876083525507,0.5642319857375759,0.3402489863605175,-0.41559485247532824,0.5832034459198624,-0.6089489968788782
63.56600146484288,-3.3917744730258397,-1.384185559528385,8.860371472117299,-0.10906584167814787,0.9925569468934331,0.02620855037587623,1.598771211219667,0.05007794571595363,0.5642445720931925,0.34028162714697796,-0.4155733668446643,0.5832396188460464,-0.608911107216215
63.576001464842875,-3.3916927369548793,-1.3843469177924075,8.860690541386196,-0.10894556150627899,0.9925697049143758,0.026256886290578235,1.5988394535031685,0.050279807906400256,0.5642571584488091,0.34031426793343844,-0.41555188121400033,0.5832757917722304,-0.6088732175535517
63.58600146484287,-3.391611000883919,-1.3845082760564298,8.861009610655094,-0.1088252813344101,0.9925824629353185,0.026305222205280247,1.59890769578667,0.050481670096846884,0.5642697448044256,0.3403469087198989,-0.4155303955833363,0.5833119646984144,-0.6088353278908885
63.59600146484287,-3.3915292648129585,-1.384669634320452,8.861328679923991,-0.10870500116254124,0.9925952209562612,0.026353558119982252,1.5989759380701714,0.05068353228729351,0.5642823311600421,0.34037954950635946,-0.41550890995267237,0.5833481376245985,-0.6087974382282253
63.60600146484287,-3.3914475287419985,-1.3848309925844746,8.861647749192887,-0.10858472099067237,0.992607978977204,0.026401894034684258,1.5990441803536728,0.05088539447774014,0.5642949175156586,0.34041219029281994,-0.41548742432200836,0.5833843105507824,-0.608759548565562
63.61600146484287,-3.391365792671038,-1.384992350848497,8.861966818461784,-0.10846444081880349,0.9926207369981467,0.02645022994938627,1.5991124226371742,0.05108725666818677,0.5643075038712752,0.3404448310792804,-0.4154659386913444,0.5834204834769665,-0.6087216589028988
63.626001464842865,-3.3912840566000777,-1.3851537091125192,8.862285887730682,-0.10834416064693463,0.9926334950190894,0.026498565864088275,1.5991806649206755,0.051289118858633395,0.5643200902268918,0.3404774718657409,-0.4154444530606804,0.5834566564031505,-0.6086837692402356
63.63600146484286,-3.3912023205291173,-1.3853150673765418,8.86260495699958,-0.10822388047506576,0.9926462530400321,0.02654690177879028,1.599248907204177,0.05149098104908002,0.5643326765825083,0.3405101126522014,-0.41542296743001644,0.5834928293293346,-0.6086458795775723
63.64600146484286,-3.3911205844581573,-1.385476425640564,8.862924026268477,-0.10810360030319688,0.9926590110609748,0.026595237693492292,1.5993171494876783,0.05169284323952665,0.5643452629381248,0.34054275343866186,-0.41540148179935243,0.5835290022555185,-0.608607989914909
63.65600146484286,-3.391038848387197,-1.3856377839045864,8.863243095537374,-0.107983320131328,0.9926717690819175,0.026643573608194297,1.5993853917711798,0.05189470542997328,0.5643578492937413,0.34057539422512234,-0.4153799961686885,0.5835651751817026,-0.6085701002522459
63.66600146484286,-3.3909571123162365,-1.3857991421686089,8.863562164806272,-0.10786303995945913,0.9926845271028601,0.026691909522896302,1.5994536340546812,0.052096567620419906,0.5643704356493578,0.3406080350115828,-0.41535851053802453,0.5836013481078866,-0.6085322105895826
63.676001464842855,-3.390875376245276,-1.3859605004326312,8.86388123407517,-0.10774275978759026,0.992697285123803,0.026740245437598308,1.5995218763381827,0.052298429810866534,0.5643830220049744,0.3406406757980433,-0.4153370249073605,0.5836375210340706,-0.6084943209269194
63.68600146484285,-3.390793640174316,-1.3861218586966535,8.864200303344067,-0.10762247961572138,0.9927100431447456,0.02678858135230032,1.599590118621684,0.05250029200131316,0.564395608360591,0.3406733165845038,-0.41531553927669657,0.5836736939602546,-0.6084564312642562
63.69600146484285,-3.3907119041033558,-1.3862832169606758,8.864519372612964,-0.10750219944385252,0.9927228011656883,0.026836917267002325,1.5996583609051855,0.05270215419175979,0.5644081947162075,0.34070595737096426,-0.41529405364603256,0.5837098668864387,-0.6084185416015929
63.70600146484285,-3.3906301680323954,-1.3864445752246983,8.864838441881862,-0.10738191927198365,0.992735559186631,0.02688525318170433,1.599726603188687,0.05290401638220642,0.564420781071824,0.34073859815742474,-0.4152725680153686,0.5837460398126227,-0.6083806519389297
63.71600146484285,-3.390548431961435,-1.3866059334887206,8.865157511150759,-0.10726163910011477,0.9927483172075737,0.026933589096406342,1.5997948454721882,0.053105878572653045,0.5644333674274405,0.3407712389438852,-0.4152510823847046,0.5837822127388067,-0.6083427622762665
63.726001464842845,-3.390466695890475,-1.386767291752743,8.865476580419656,-0.10714135892824589,0.9927610752285164,0.026981925011108347,1.5998630877556896,0.05330774076309967,0.5644459537830571,0.3408038797303457,-0.41522959675404064,0.5838183856649908,-0.6083048726136032
63.73600146484284,-3.3903849598195146,-1.3869286500167655,8.865795649688554,-0.10702107875637702,0.9927738332494591,0.027030260925810352,1.599931330039191,0.0535096029535463,0.5644585401386737,0.3408365205168062,-0.4152081111233767,0.5838545585911747,-0.60826698295094
63.74600146484284,-3.390303223748554,-1.3870900082807878,8.866114718957451,-0.10690079858450816,0.9927865912704019,0.027078596840512364,1.5999995723226925,0.05371146514399293,0.5644711264942902,0.3408691613032667,-0.4151866254927127,0.5838907315173588,-0.6082290932882768
63.75600146484284,-3.390221487677594,-1.38725136654481,8.866433788226347,-0.10678051841263927,0.9927993492913446,0.02712693275521437,1.600067814606194,0.053913327334439556,0.5644837128499067,0.3409018020897272,-0.4151651398620487,0.5839269044435428,-0.6081912036256135
63.76600146484284,-3.390139751606634,-1.3874127248088326,8.866752857495245,-0.10666023824077041,0.9928121073122873,0.027175268669916375,1.6001360568896954,0.054115189524886184,0.5644962992055232,0.3409344428761877,-0.4151436542313847,0.5839630773697269,-0.6081533139629502
63.776001464842835,-3.3900580155356734,-1.387574083072855,8.867071926764142,-0.10653995806890154,0.99282486533323,0.027223604584618387,1.6002042991731968,0.05431705171533281,0.5645088855611398,0.34096708366264816,-0.41512216860072076,0.5839992502959108,-0.6081154243002871
63.78600146484283,-3.389976279464713,-1.3877354413368772,8.86739099603304,-0.10641967789703266,0.9928376233541727,0.027271940499320392,1.6002725414566983,0.05451891390577944,0.5645214719167564,0.34099972444910864,-0.41510068297005676,0.5840354232220949,-0.6080775346376238
63.79600146484283,-3.3898945433937526,-1.3878967996008997,8.867710065301937,-0.10629939772516378,0.9928503813751154,0.027320276414022397,1.6003407837401995,0.05472077609622607,0.5645340582723729,0.3410323652355691,-0.4150791973393928,0.5840715961482789,-0.6080396449749605
