accelerationX,rotationRateZ,rotationRateY,quaternionW,label
0.001737356,-0.020628158,0.016117003,0.961996512,N
0.002680302,-0.023537926,0.017973971,0.962073482,N
0.000964284,-0.018200688,0.016638394,0.962141638,N
0.003284782,-0.02208038,0.018086251,0.962204593,N
0.008069426,-0.013236821,0.009627518,0.962258754,N
0.010983378,-0.006595429,0.009533348,0.962309593,N
0.011416286,-0.001049929,0.013518769,0.962359523,N
0.013608336,0.001659304,0.007086969,0.962399016,N
0.022462755,0.003852418,0.009617238,0.962463076,N
0.025857985,0.004554693,0.010337037,0.962536662,N
0.026992321,0.008797907,0.012053978,0.962602439,N
0.028125018,0.006936625,0.014819298,0.962667307,N
0.031717658,0.00711186,0.013841119,0.962741724,N
0.037095606,0.006570706,0.008600284,0.962810663,N
0.0407134,0.00734249,0.005570406,0.962875895,N
0.03889069,0.011286099,-0.003123111,0.962957208,N
0.035318732,0.013120218,0.003514018,0.963058256,N
0.032515794,0.004510218,0.005661964,0.963169937,N
0.028641552,0.009275412,0.008000219,0.963287907,N
0.032282799,0.000903499,0.012006146,0.963416651,N
0.032028615,0.006418107,0.00492054,0.963550393,N
0.029878765,0.002033479,0.006092597,0.963685128,N
0.031274557,0.008296967,-0.002628775,0.963814326,N
0.030891031,0.021231674,-0.009376853,0.963925239,N
0.02993542,0.01644757,-0.009268462,0.964026229,N
0.026599199,0.011135098,-0.009255201,0.964128327,N
0.023896456,-0.004013229,-0.011823021,0.964235581,N
0.019713908,-0.058793653,0.009643656,0.9643744,N
0.007932365,-0.145554125,0.048251502,0.964583532,N
-0.007726341,-0.167025059,0.03981008,0.964820232,N
0.008463264,-0.28809607,0.009729942,0.965045971,N
0.008020639,-0.374828845,0.014166823,0.965312775,N
-0.015919328,-0.414257199,0.035955474,0.965613702,N
-0.024935633,-0.401854336,0.029469667,0.965929155,N
-0.012505323,-0.565655231,0.033175189,0.966208587,D
-0.04918927,-0.644416928,0.023302689,0.966516393,D
-0.080410957,-0.73355639,0.009588209,0.966786578,D
-0.080875784,-0.914291799,0.056802966,0.967016728,D
-0.103944063,-0.96052587,-0.049607895,0.967085229,D
-0.126713187,-1.012465835,-0.010823907,0.967032115,D
-0.152764916,-1.205537319,-0.092066839,0.96674568,D
-0.111036599,-1.356707096,-0.010668593,0.96620217,D
-0.159877211,-1.338164568,-0.06917771,0.965458926,D
-0.147322744,-1.52775228,-0.070761919,0.964437713,D
-0.160587639,-1.683298826,0.008599218,0.963192306,D
-0.218970925,-1.687427759,-0.019069802,0.961727362,D
-0.208617002,-1.822134376,-0.029977307,0.959939691,D
-0.199771434,-1.914777279,-0.025210306,0.957784086,D
-0.202913761,-2.003982306,-0.066099942,0.95527251,D
-0.204517901,-2.106720448,-0.099067591,0.952369322,D
-0.213597536,-2.225977659,-0.106279425,0.949019941,D
-0.223372549,-2.30181098,-0.162352815,0.945210594,D
-0.226336956,-2.319088459,-0.208503529,0.94085926,D
-0.232307136,-2.347941637,-0.228400871,0.936009791,D
-0.24898088,-2.426542282,-0.301817805,0.930450683,D
-0.201501906,-2.451495171,-0.321965307,0.92413856,D
-0.170149922,-2.472025394,-0.392514318,0.917164225,D
-0.188075244,-2.433002949,-0.473950416,0.909604424,D
-0.221902013,-2.400062323,-0.520103514,0.901629136,D
-0.243016243,-2.428107262,-0.501401365,0.893133536,D
-0.219780684,-2.45493412,-0.515794933,0.883962391,D
-0.191960514,-2.348313093,-0.555009842,0.874396699,D
-0.157890558,-4.721610546,-2.25646472,0.494640109,D
-0.122164965,-4.616811752,-2.355725288,0.480134379,D
-0.060004771,-4.499957561,-2.506766081,0.465492293,D
0.018282831,-4.369483948,-2.674866915,0.450877472,D
0.068974495,-4.257959366,-2.829460621,0.436269181,D
0.080062553,-4.237974644,-3.038825035,0.421600777,D
0.097785376,-4.161774635,-3.229879379,0.406933062,D
0.101816498,-4.133220196,-3.370673418,0.392145821,D
0.092140228,-4.138859749,-3.449493647,0.376875776,D
0.089527451,-4.203674793,-3.469698429,0.360880172,D
0.099454582,-4.353641987,-3.486152411,0.343835499,D
0.108003139,-4.512681961,-3.367905378,0.32529364,D
0.093562275,-4.714076519,-3.400517941,0.306237236,D
0.033775717,-4.745824337,-3.253558636,0.287075369,D
-0.051647395,-4.844102383,-3.074852467,0.267018856,D
-0.162990063,-4.946601391,-2.961245537,0.245201125,D
-0.261669397,-5.130521297,-2.745211363,0.221090868,D
-0.371448517,-5.314806938,-2.732400417,0.196321005,D
-0.408981323,-5.295572758,-2.829252481,0.173979503,D
-0.403213501,-5.275908947,-2.825499296,0.154485588,D
-0.464647174,-5.363618851,-2.984098196,0.13759566,D
-0.523209691,-5.371516228,-3.27213645,0.122722778,D
-0.577012777,-5.289460182,-3.521434069,0.108544595,D
-0.799930751,-5.485305786,-3.715909004,0.094503322,D
-1.12331295,-5.483946323,-4.074000835,0.08204629,N
-1.287850976,-5.584987164,-4.318043709,0.072012299,N
-1.352843761,-5.661411285,-4.717758179,0.066695569,N
-1.276187897,-5.593539715,-5.16007185,0.068828428,N
-1.159400463,-5.373028278,-5.522951126,0.078507714,D
-1.113997221,-5.034772396,-5.856926918,0.094984369,D
-1.092175007,-4.474287033,-6.050753593,0.116051553,D
-1.087289572,-3.780834675,-6.174676895,0.14074063,D
-1.092427492,-2.890094757,-6.327876091,0.169567473,D
-1.092062831,-1.71661818,-6.386855125,0.203934462,D
-1.069679022,-0.527183235,-6.461075306,0.24386905,D
-1.062551618,0.956742883,-6.607395649,0.28948248,D
-1.070600033,2.458220243,-6.750627995,0.33916685,D
-1.231754065,3.610738516,-6.553787708,0.38967903,D
-1.528516531,4.351946354,-6.249414444,0.438663577,D
-1.596541405,5.151795387,-6.043435574,0.486788662,D
-1.481342554,5.713481426,-5.806623459,0.536321119,D
-1.508108735,6.278033733,-5.493432522,0.58805456,D
-1.586899519,6.888494968,-4.998479843,0.639888012,D
-1.664946914,7.343120098,-4.328732491,0.688901872,D
-1.742022514,7.777369499,-3.684103251,0.734248812,D
-1.721520066,8.125470161,-3.072026491,0.775024784,D
-0.202436954,-2.818214417,-1.473489165,0.575948862,D
-0.219627857,-2.990006685,-1.561701894,0.570670098,D
-0.237100244,-3.132973194,-1.638628602,0.564617056,D
-0.222472042,-3.251178741,-1.709174514,0.557755793,D
-0.208137006,-3.343329668,-1.761853695,0.550045869,D
-0.205045879,-3.467570782,-1.790077806,0.541369013,D
-0.19706136,-3.555250406,-1.836536646,0.531625124,D
-0.186490774,-3.62232542,-1.885227442,0.520906586,D
-0.179968983,-3.695722342,-1.940244079,0.509200562,D
-0.167376071,-3.747049093,-2.019355774,0.496522563,D
-0.139154941,-3.772470236,-2.101360321,0.482997716,D
-0.089663491,-3.792672634,-2.220709801,0.468715277,D
-0.026731387,-3.82801342,-2.368190765,0.453798388,D
0.025582373,-3.835921049,-2.603901386,0.438463691,D
0.085936576,-3.879034042,-2.846126795,0.42290687,D
0.116539121,-3.937330723,-3.052760839,0.406893496,D
0.10843572,-4.029946327,-3.129869223,0.38984051,D
0.079113752,-4.169349194,-3.243409395,0.371466286,D
0.006862268,-4.439798355,-3.301098108,0.351624258,D
-0.097257838,-4.718910217,-3.33131361,0.330167713,D
-0.167509228,-4.870132446,-3.469198227,0.308135653,D
-0.211820692,-5.186714172,-3.380903244,0.285335335,D
-0.320705742,-5.55258894,-3.389061451,0.261777338,D
-0.379595935,-5.668373108,-3.463817835,0.239033086,D
-0.357506275,-5.874010563,-3.348067284,0.216435996,D
-0.433769345,-6.164572716,-3.176983118,0.193185579,D
-0.533827722,-6.392979145,-3.128796339,0.16940263,D
-0.593929052,-6.532333851,-3.192244053,0.14536438,D
-0.672675014,-6.52858305,-3.260688782,0.121591455,D
-0.859250963,-6.837682247,-3.355738878,0.099968962,N
-1.141568303,-6.882573605,-3.765773296,0.085625555,N
-1.260988712,-6.726212978,-4.192801476,0.079359999,N
-1.360124111,-6.517209053,-4.663681984,0.080737779,D
-1.365270138,-6.070116043,-5.204585552,0.087869533,D
-1.254859686,-5.489340305,-5.608338833,0.099424986,D
-1.22899127,-4.694018841,-5.845844746,0.116286929,D
-1.228893161,-3.784300327,-5.994778156,0.139153283,D
-1.092927694,-2.709038258,-6.066974163,0.167928512,D
-0.841268301,-1.456614017,-6.079519749,0.200607085,D
-0.613107979,-0.337337106,-6.192990303,0.23639974,D
-0.547232449,0.493195504,-6.364327431,0.274880151,D
-0.612784684,1.174067497,-6.444564342,0.318042583,D
-0.701614857,2.07300663,-6.784568787,0.369039345,D
-0.736112297,3.177474499,-7.013715267,0.427598976,D
-0.813442707,4.515281677,-6.966618061,0.491946153,D
-1.09603858,5.499608994,-6.54820013,0.557545968,D
-1.549976468,6.569160461,-5.936558247,0.619748124,D
-1.930935144,6.977700233,-4.867999554,0.675458411,D
-2.20853281,7.427758694,-3.88786459,0.726315322,D
-2.23716712,7.944054604,-2.929289818,0.771564711,D
-2.12057066,8.188622475,-1.960444212,0.810594133,D
-2.1644907,8.242198944,-0.916127622,0.842301148,D
-2.159799576,8.348940849,0.002866977,0.867032673,D
-2.015613556,8.379640579,0.653075457,0.885461627,D
-1.825051904,8.20882225,1.183214426,0.899009244,D
-1.64198947,7.810276985,1.536876082,0.909242841,D
-1.445866227,7.860014915,1.450320482,0.916331844,D
-1.339070439,7.693691254,1.917181015,0.919747048,D
-1.439076781,7.491307735,2.308402061,0.919245967,D
-1.430964828,7.104929447,2.506679773,0.91575899,D
-1.36512661,6.728298187,2.569816113,0.910401153,D
-1.278061867,6.318902016,2.718196869,0.903415119,D
-1.270711184,5.787425995,2.824983835,0.895070655,D
-1.278359056,5.31484127,2.685967207,0.886049974,D
-1.176653147,4.992593765,2.630036831,0.876498397,D
-1.060577393,5.00669384,2.703779936,0.865855664,D
-0.9813236,4.739318371,2.393574238,0.854276579,D
-0.926500142,4.340053082,1.925954819,0.843541466,D
-1.028132558,3.977916479,1.933342695,0.832950585,D
-1.176295638,3.539980173,1.711303115,0.822623498,D
-1.134500742,3.337198257,1.438781619,0.812819393,D
-0.98805052,2.997087717,1.279798627,0.803527882,D
-0.885034621,2.652419806,1.08039391,0.794989472,D
-0.772636712,2.44687891,0.850999355,0.787234673,D
-0.653316438,2.076606274,0.700254858,0.780161898,D
-0.584241509,1.586137772,0.573880196,0.774254445,D
-0.393146276,1.236288786,0.295405149,0.769459796,D
-0.139311254,1.055775404,0.14918004,0.766123251,N
-0.049436271,1.27190268,-0.432227969,0.763230836,N
0.008590996,0.315106183,-0.524199247,0.762315295,N
0.009873509,0.264293343,-0.488117665,0.761824888,N
-0.106293499,0.410735756,-0.393026441,0.761718886,N
-0.321609437,0.295085609,-0.517129004,0.761569801,N
-0.137203157,-0.016286939,-0.204565838,0.761625218,N
-0.153248727,-0.113449968,-0.194563538,0.761907081,N
-0.205462039,-0.159861147,-0.142842188,0.76238329,N
-0.271944344,-0.309967816,-0.101486221,0.763004624,N
-0.234383583,-0.339140356,-0.190329596,0.763906961,N
-0.188125789,-0.461042285,-0.296096772,0.765272968,N
-0.168290555,-0.549687445,-0.407528669,0.767268163,N
-0.117170155,-0.668450892,-0.505524695,0.769875153,N
-0.089406192,-0.780731857,-0.635056138,0.773142321,N
-0.083625793,-0.875329196,-0.787468851,0.776983608,N
-0.090562999,-0.96767354,-0.892458081,0.781317482,N
-0.080657125,-1.042547584,-0.988385677,0.786074219,D
-0.066240191,-1.109036088,-1.105391145,0.791245603,D
-0.08054316,-1.180986643,-1.211901307,0.796803737,D
-0.116285264,-1.254266143,-1.298487425,0.802696043,D
-0.168730795,-1.297986507,-1.378382087,0.897389058,D
-0.224447429,-1.344677091,-1.468021989,0.902225906,D
-0.239672422,-1.455532432,-1.512515068,0.907232288,D
-0.249507546,-1.555083036,-1.560078025,0.912321075,D
-0.272662461,-1.684060931,-1.57902348,0.917350405,D
-0.287860155,-1.862618446,-1.568717837,0.922246058,D
-0.298811615,-2.00743556,-1.532297254,0.926966225,D
-0.307714224,-2.168101549,-1.521060348,0.931380478,D
-0.302411735,-2.32744813,-1.49785912,0.935391501,D
-0.277624011,-2.496726751,-1.503733873,0.938999417,D
-0.256236434,-2.626808643,-1.514253259,0.942287151,D
-0.242818356,-2.666772127,-1.483082771,0.945316143,D
-0.233988702,-2.803202629,-1.408751726,0.947938727,D
-0.250813782,-2.987296343,-1.375202537,0.949905416,D
-0.261505604,-3.208856821,-1.340149999,0.951169516,D
-0.241994619,-3.441326618,-1.2903229,0.951718919,D
-0.19772172,-3.52244544,-1.250478983,0.951557031,D
-0.143474281,-3.583122492,-1.218480587,0.950714591,D
-0.102660894,-3.656705856,-1.135477304,0.949117425,D
-0.075268507,-3.600256205,-1.102096796,0.946748438,D
-0.087325871,-3.706643343,-0.960914969,0.943455295,D
-0.151502162,-3.781266451,-0.73118186,0.938983589,D
-0.181889713,-3.797145128,-0.537962317,0.933438616,D
-0.190285712,-3.821728945,-0.560736239,0.927205626,D
-0.164181828,-4.003642082,-0.473194957,0.920192661,D
-0.083197862,-4.045701504,-0.368354559,0.912048898,D
-0.033360749,-3.983767986,-0.34090668,0.902759357,D
-0.057688355,-3.951509714,-0.212948784,0.891969791,D
-0.114633679,-3.995800257,-0.053237412,0.879665044,D
-0.183163553,-3.969805241,0.068030216,0.866658105,D
-0.220644981,-4.048695087,-0.037592884,0.853612131,D
-0.196283653,-4.179800987,-0.121220291,0.840161588,D
-0.177215084,-4.113303185,-0.05754891,0.825668615,D
-0.201447919,-4.047899723,0.126312584,0.809257159,D
-0.249824345,-4.006989479,0.360837728,0.790685927,D
-0.313273013,-4.09543705,0.401110291,0.77093001,D
-0.340746015,-4.206612587,0.357309014,0.75090919,D
-0.334908575,-4.15019989,0.320265353,0.731569826,D
-0.274923474,-4.143651009,0.343612999,0.71267995,D
-0.255549371,-4.105619907,0.476884812,0.693584116,D
-0.302057683,-4.045726299,0.747820199,0.673172816,D
-0.419318318,-4.056814194,1.023959398,0.650599405,D
-0.501253963,-4.011282921,1.253220558,0.626571668,D
-0.452780426,-3.956409931,1.414295912,0.602276739,D
-0.340155721,-3.848675251,1.338352203,0.580098483,D
-0.267317861,-3.616300106,1.246872544,0.56075941,D
-0.282262355,-3.401016474,1.442737699,0.541565083,D
-0.385052204,-3.200917959,1.78807354,0.519998985,D
-0.472101212,-3.036427021,2.080619097,0.49557891,D
-0.452943295,-3.004683971,2.2218225,0.469621257,D
-0.41261965,-2.846203566,2.27595067,0.444589101,D
-0.343063205,-2.680351257,2.124449253,0.422083885,D
-0.240243256,-2.495223522,2.007963657,0.401852194,D
-0.155208588,-2.366129637,1.966063619,0.382642588,D
-0.132741094,-2.264609814,1.976065159,0.363646758,D
-0.176008582,-2.173984528,2.115325928,0.343907372,D
-0.241397917,-2.167520761,2.295335054,0.322666885,D
-0.262195766,-2.15559268,2.341179848,0.300775684,D
-0.239668071,-3.401744366,-2.953580141,-0.051208386,D
-0.220171124,-3.338778257,-3.102794647,-0.057741782,D
-0.187266514,-3.307161808,-3.220315218,-0.06371558,D
-0.130663812,-3.298088312,-3.314148188,-0.069206038,D
-0.104199082,-3.322524548,-3.406473637,-0.074365401,D
-0.108164303,-3.406755924,-3.495434999,-0.079425256,D
-0.100540534,-3.5957582,-3.612540722,-0.08478345,D
-0.118478268,-3.813924313,-3.727610111,-0.090707182,D
-0.175003603,-4.097471714,-3.803019047,-0.097289471,D
-0.236293137,-4.444747925,-3.798149586,-0.104981897,D
-0.216552198,-1.117483616,-0.496344984,0.00847605,D
-0.245155454,-1.356786728,-0.577770054,0.004336715,D
-0.249149114,-1.597592115,-0.658093154,-0.000386922,D
-0.231517136,-1.860239983,-0.723231494,-0.005697277,D
-0.234874159,-2.106578827,-0.788075209,-0.011702115,D
-0.270234674,-2.325837135,-0.845658839,-0.018258719,D
-0.296705693,-2.548143625,-0.882393181,-0.025292202,D
-0.328353286,-2.729739666,-0.94771415,-0.032722699,D
-0.327902794,-2.87646389,-0.994538605,-0.040514205,D
-0.307217181,-3.008588076,-1.052047372,-0.048454802,D
-0.323793232,-3.117801905,-1.137998819,-0.056537688,D
-0.361236095,-3.171964169,-1.237961173,-0.064669827,D
-0.343481481,-3.235819101,-1.37043798,-0.072744981,D
-0.283886433,-3.270392895,-1.522932172,-0.080788256,D
-0.274662435,-3.281260014,-1.688961864,-0.088575527,D
-0.287387788,-3.306419134,-1.876534581,-0.096027359,D
-0.284235656,-3.323427439,-2.09653616,-0.103228134,D
-0.308564603,-3.366799593,-2.291217089,-0.110198488,D
-0.355540335,-3.400966883,-2.503628492,-0.117122147,D
-0.382733464,-3.386157036,-2.703147173,-0.123809159,D
-0.34482199,-3.333182096,-2.893482447,-0.129984419,D
-0.26793766,-3.290106058,-3.044148207,-0.135508922,D
-0.208438933,-3.239709377,-3.180410147,-0.14041149,D
-0.165134132,-3.194853783,-3.360093117,-0.144644789,D
-0.109011739,-3.213173866,-3.554023266,-0.148235436,D
-0.071156278,-3.351300716,-3.698043108,-0.15168937,D
-0.095511243,-3.470818281,-3.78010726,-0.155260677,D
-0.122752085,-3.655692816,-3.86555171,-0.159146061,D
-0.161082476,-3.819728613,-3.867600441,-0.163507132,D
-0.203494176,-4.024684906,-3.778313875,-0.168415162,D
-0.210559234,-4.254386425,-3.761466265,-0.174216456,D
-0.209429651,-4.415328026,-3.665530205,-0.180815262,D
-0.251030445,-4.573194981,-3.459476709,-0.18820434,D
-0.285905838,-4.77811718,-3.276007891,-0.196464883,D
-0.26621443,-5.080105782,-3.146233082,-0.205854001,D
-0.289264977,-5.404444695,-3.188531637,-0.21617838,D
-0.33953464,-5.597194672,-3.185299397,-0.2267545,D
-0.43237862,-5.905566216,-3.095579147,-0.237874912,D
-0.537014365,-6.084870815,-3.180304289,-0.249336622,D
-0.528382778,-6.185171604,-3.206970453,-0.260366487,D
-0.547416508,-6.286396503,-3.121245623,-0.271008935,D
-0.625883877,-6.291655064,-3.122915983,-0.280969967,D
-0.625686467,-6.214010715,-3.317892075,-0.289498098,D
-0.614213407,-6.13267231,-3.299614668,-0.296367689,N
-0.824489057,-6.122772694,-3.288141251,-0.301931381,N
-0.102830499,0.061352994,-0.772329152,0.253018278,N
-0.156830668,-0.068725377,-0.83158958,0.251161142,N
-0.183395386,-0.223778084,-0.864474237,0.248809993,N
-0.183125421,-0.404870361,-0.843047798,0.245978182,D
-0.153497055,-0.574747264,-0.798487782,0.242866557,D
-0.121666282,-0.753924251,-0.758580029,0.239555399,D
-0.099590488,-0.993473172,-0.694696009,0.235945906,D
-0.091348872,-1.257803202,-0.633092582,0.231892713,D
-0.09085767,-1.58525908,-0.549941957,0.227156627,D
-0.093064845,-1.939690948,-0.457902282,0.221485657,D
-0.095531337,-2.277962208,-0.3625696,0.214809139,D
-0.110835746,-2.603815794,-0.247276306,0.207167398,D
-0.158812433,-2.890192509,-0.148556158,0.198695904,D
-0.207648978,-3.134778023,-0.036265299,0.189549264,D
-0.233527467,-3.35877943,0.099195912,0.180024785,D
-0.263306558,-3.588970184,0.207808137,0.170086958,D
-0.282434851,-3.728925467,0.291972876,0.159613581,D
-0.297643274,-3.874912262,0.355246633,0.148757328,D
-0.303523391,-3.943609238,0.327452689,0.13759751,D
-0.294338137,-4.009764194,0.243269086,0.126168324,D
-0.307386816,-4.030942917,0.079766177,0.114485564,D
-0.31627658,-4.0327878,-0.113927126,0.102630212,D
-0.31817922,-4.03453207,-0.361641169,0.090625399,D
-0.325509101,-4.027121067,-0.638393342,0.078499001,D
-0.32486859,-4.013948917,-0.912178159,0.066303621,D
-0.289198458,-4.053386211,-1.212327123,0.053958572,D
-0.253942937,-4.098496914,-1.533602834,0.041319995,D
-0.237291396,-4.149388313,-1.885590076,0.028379539,D
-0.218534231,-4.204327106,-2.169173241,0.015381148,D
-0.209051907,-4.206183434,-2.455174923,0.002371596,D
-0.216105253,-4.144458294,-2.689665556,-0.01018391,D
-0.203274444,-4.074825287,-2.898748398,-0.02211856,D
-0.155431062,-4.015077591,-3.100537539,-0.033428379,D
-0.104932368,-3.994079828,-3.295507431,-0.044171085,D
-0.08089719,-4.002839565,-3.457568407,-0.054565176,D
-0.062098831,-4.139472485,-3.601469994,-0.064949121,D
-0.059626762,-4.223361969,-3.692189455,-0.075564345,D
-0.061196268,-4.294921398,-3.735821962,-0.086197001,D
-0.070016623,-4.453756809,-3.670342207,-0.097124674,D
-0.137676671,-4.730690956,-3.501668453,-0.109131699,D
-0.182910711,-4.974451542,-3.345547199,-0.122468168,D
-0.182792842,-5.279203892,-3.1102283,-0.137065958,D
-0.259086549,-5.678803444,-3.010541916,-0.152989134,D
-0.366470218,-5.848573685,-2.956541777,-0.169044547,D
-0.518457174,-6.176576138,-2.689015865,-0.185509112,D
-0.749141693,-6.447916031,-2.726867199,-0.202508368,D
-0.795172513,-6.609225273,-2.71654439,-0.219057355,D
-0.89391464,-6.937503815,-2.660209656,-0.235876603,D
-1.049640775,-6.895672321,-2.803805113,-0.252164672,D
-1.076016188,-6.838096142,-2.886116505,-0.266590002,D
-1.268650413,-6.764696598,-2.999093771,-0.278317831,D
-1.439702272,-6.60150671,-3.254671335,-0.285767724,D
-1.446934462,-6.231115818,-3.625116587,-0.288153424,D
-1.334646463,-5.846905231,-4.062749386,-0.285610649,D
-1.175088763,-5.327775478,-4.536150932,-0.277872806,D
-1.070078731,-4.715571404,-4.998597145,-0.26414069,D
-0.984733164,-4.051632404,-5.567774296,-0.242878612,D
-0.840794265,-3.230138302,-6.085421562,-0.213963721,D
-0.699399829,-2.258126974,-6.415105343,-0.17864257,D
-0.596067488,-1.356166244,-6.637050152,-0.139077148,D
-0.546550214,-0.524267077,-6.692419052,-0.096523421,D
-0.562251568,0.04188795,-6.828541756,-0.050388219,D
-0.554552078,0.615279078,-6.999738216,-0.000320834,D
-0.52731663,1.288458943,-7.142978191,0.054577901,D
-0.595336378,1.940220594,-7.286266804,0.115270771,D
-0.694601595,2.6714077,-7.301502228,0.180154219,D
-0.788266301,3.441022158,-7.116410255,0.247829478,D
-0.970383644,4.253348351,-6.919542789,0.316951633,D
-1.172198772,4.995065212,-6.222462654,0.384303114,D
-1.372322679,5.593021393,-5.522324085,0.44786018,D
-1.466478109,6.228047848,-4.768308163,0.506615514,D
-1.460525751,6.727410316,-4.082275391,0.56055654,D
-1.456582904,7.001658916,-3.464189053,0.610345792,D
-1.503768682,7.109459877,-2.913476229,0.656922923,D
-1.524897218,7.313971996,-2.501146555,0.700864299,D
-1.453884125,7.473049164,-2.096833229,0.742379671,D
-1.407524943,7.567901611,-1.691170216,0.780990117,D
-1.391430497,7.582575321,-1.252093196,0.815712898,D
-1.322204471,7.610748768,-0.775777757,0.846072461,D
-1.227934003,7.618997097,-0.34852314,0.872305692,D
-1.148303747,7.614804745,0.021858405,0.894616311,D
-1.049556494,7.608799934,0.329834074,0.913687863,D
-1.075805545,7.504028797,0.788546443,0.929285153,D
-1.16002059,7.393895626,1.127638817,0.941414044,D
-1.15690577,7.278408051,1.346569657,0.950333902,D
-1.126254082,7.106523514,1.539476991,0.956432492,D
-1.076253772,6.931794643,1.72125864,0.959922001,D
-1.047765493,6.817960262,1.914348483,0.96097644,D
-1.082942128,6.635725498,2.113140345,0.959662295,D
-1.073879719,6.49696064,2.181082487,0.956230745,D
-1.003993034,6.382223129,2.192865372,0.950912585,D
-0.967932701,6.151481152,2.159109831,0.943912808,D
-0.99013406,5.748653889,2.107435703,0.935587674,D
-1.036021709,5.460471153,2.121572971,0.926210473,D
-1.113045931,5.083724022,2.1366961,0.916081377,D
-1.229140997,4.653569221,2.082099915,0.905462405,D
-1.327682972,4.29981041,2.040723562,0.894467247,D
-1.379275799,3.909294128,1.937795639,0.883360506,D
-1.360069513,3.660679102,1.876520038,0.872091522,D
-1.292357922,3.48038125,1.833821297,0.86061642,D
-1.211569309,3.187113047,1.720586896,0.849108863,D
-1.11217165,2.965742826,1.631166458,0.837678654,D
-1.005416155,2.772505045,1.543831825,0.826666291,D
-0.478615165,-4.231771469,-1.1971277,0.943898161,D
-0.470642269,-4.385519981,-1.135382056,0.949997882,D
-0.445459545,-4.517508507,-1.091962218,0.955109457,D
-0.406630337,-4.600365639,-1.049281359,0.959232821,D
-0.385083795,-4.684202671,-0.97585696,0.962324952,D
-0.380508006,-4.754388332,-0.908644378,0.96428989,D
-0.371233761,-4.854078293,-0.905412138,0.965151785,D
-0.318969786,-4.90075016,-0.857163906,0.96492012,D
-0.238041103,-4.898164749,-0.757271767,0.963457655,D
-0.182075322,-4.904328823,-0.666718185,0.960740869,D
-0.145580679,-4.901629448,-0.574686825,0.956872263,D
-0.106094658,-4.874651432,-0.449605912,0.95186039,D
-0.046664119,-4.799517155,-0.308514833,0.94563219,D
0.004892945,-4.737932205,-0.224634036,0.938297112,D
0.026990592,-4.650321484,-0.112020619,0.929832148,D
0.02556926,-4.560622215,0.03013093,0.920257788,D
0.005070508,-4.516394615,0.146892548,0.909659825,D
-0.016529679,-4.467825413,0.29772678,0.898013966,D
-0.024312139,-4.375078201,0.434282184,0.885389887,D
-0.047694027,-4.333893776,0.477060288,0.872205155,D
-0.060736492,-4.326995373,0.528779507,0.858294888,D
-0.028587252,-4.250049591,0.668202877,0.843180097,D
-0.058148742,-4.10538578,0.81392014,0.827003114,D
-0.190435514,-4.018352509,0.835175872,0.810494052,D
-0.265914708,-3.929646969,0.887487292,0.793583503,D
-0.241116807,-3.852287054,1.03973937,0.775689551,D
-0.200792551,-3.81740284,1.074924231,0.757482465,D
-0.146126851,-3.711197615,1.053621292,0.739777864,D
-0.092594206,-3.611943483,1.092432737,0.722150418,D
-0.10933011,-3.513358593,1.192299366,0.703938259,D
-0.166155815,-3.437322378,1.283791184,0.684866384,D
-0.213714227,-3.314522028,1.342651606,0.66528095,D
-0.199363768,-3.100208282,1.46777451,0.645540281,D
-0.141707987,-3.020024776,1.400446653,0.626631279,D
-0.067601189,-3.012709618,1.423805833,0.608333073,D
-0.130123943,-2.874468088,1.539711952,0.589895779,D
-0.157191187,-2.923304319,1.585500836,0.570907479,D
-0.118287116,-2.76840663,1.528741956,0.551681245,D
-0.057616323,-2.611834764,1.544102907,0.532141542,D
-0.12619558,-2.494324446,1.577567101,0.512295311,D
-0.173363745,-2.409184694,1.575223804,0.492890601,D
-0.131545186,-2.382229328,1.572494864,0.474465247,D
-0.081192404,-2.307344675,1.551077843,0.457187185,D
-0.028761148,-2.234976768,1.550454378,0.440798975,D
0.000150621,-2.141081333,1.605608582,0.424618833,D
-0.045681953,-1.992062449,1.732681632,0.40758076,D
-0.116182625,-1.866159678,1.849066615,0.389334995,D
-0.140087783,-1.778972626,1.935202599,0.370509832,D
-0.124143124,-1.675479531,1.890762687,0.352560796,D
-0.049871743,-1.629265428,1.797425985,0.336118219,D
0.014880061,-1.652587771,1.711880922,0.321077926,D
0.046273828,-1.651209831,1.646270275,0.306664567,D
0.051857591,-1.627237678,1.643901825,0.292260858,D
0.018620431,-1.513495922,1.661192179,0.277664168,D
-0.023558557,-1.406047225,1.692779422,0.262835693,D
-0.054458737,-1.3179214,1.715151668,0.248078763,D
-0.062758505,-1.199079156,1.717866063,0.233906161,D
-0.037772596,-1.120887637,1.655951023,0.220919539,D
-0.007369578,-1.077192664,1.576724648,0.20899859,D
0.03164351,-1.021486998,1.512423396,0.197748379,D
0.077041447,-1.000279427,1.42744267,0.186493398,D
0.079328954,-0.962739766,1.368863225,0.175155145,D
0.042806149,-0.897321582,1.361720204,0.163441497,D
0.005893826,-0.853791952,1.367308259,0.151545334,D
-0.01029855,-0.800138593,1.339898229,0.139934416,D
0.005722523,-0.762619436,1.306093216,0.128936083,D
0.014874101,-0.721085072,1.261595607,0.119057196,D
0.017187417,-0.660460055,1.197728515,0.110184339,D
0.025523245,-0.651958466,1.132748246,0.101879714,D
0.020216823,-0.636194408,1.082190871,0.093506876,D
0.023761749,-0.618962944,1.044518352,0.084833618,D
0.027861834,-0.599043548,0.995930552,0.076217918,D
0.033069909,-0.552712023,0.939842701,0.068189755,D
0.051667809,-0.50709182,0.87927711,0.061097831,D
0.065725446,-0.46487698,0.840870738,0.054743369,D
0.061913133,-0.422444552,0.823000371,0.048766008,D
0.047970712,-0.376044571,0.809558868,0.042904046,D
0.028788626,-0.34094891,0.798920572,0.037041902,D
0.021327078,-0.305501968,0.775196135,0.031149537,D
0.035763323,-0.274365604,0.743157744,0.025324841,D
0.059262156,-0.252618253,0.699286282,0.019611981,D
0.068719268,-0.242040172,0.663322389,0.01409152,D
0.060792327,-0.249910891,0.643117964,0.008716769,D
0.052361429,-0.254063547,0.615318537,0.003510403,D
0.051785767,-0.251853108,0.582498252,-0.001577236,D
0.049865484,-0.225202337,0.570208251,-0.006641131,D
0.043917358,-0.197257787,0.54927963,-0.011546733,D
0.037494898,-0.170903414,0.518990695,-0.01637031,D
0.026347518,-0.135016784,0.502821028,-0.021052571,D
0.022135198,-0.091865584,0.469838858,-0.02563437,D
0.028208077,-0.073672466,0.442093551,-0.029996936,D
0.021692812,-0.057018925,0.420965105,-0.034184559,D
0.012085497,-0.039698258,0.393754512,-0.037950201,D
0.015206516,-0.021887034,0.346006989,-0.041248381,D
0.024521232,-0.021398079,0.315285653,-0.04410823,D
0.023284733,-0.015312222,0.277021885,-0.046618708,D
0.023415208,-0.008915575,0.228323862,-0.048791537,D
0.030516267,0.004359483,0.20155856,-0.050734468,D
0.031625628,0.013133268,0.180143654,-0.052552699,D
0.030070066,0.009094317,0.175233841,-0.054141028,D
0.02503556,0.024129458,0.166446209,-0.055541462,D
0.02452296,0.02751993,0.158148602,-0.056840184,D
0.021907866,0.021746729,0.148861691,-0.058076022,D
0.016337097,0.014715451,0.139992565,-0.059314425,D
0.014235914,0.008450897,0.110492937,-0.060495136,D
0.019533038,0.011707944,0.072225437,-0.061496532,D
0.027712166,0.018472105,0.04112611,-0.062233059,D
0.021258652,0.016457159,0.013499541,-0.062757403,D
0.002102971,0.012377729,0.006523125,-0.063095428,D
-0.01556474,0.009630146,0.011266747,-0.063393374,D
-0.022013664,0.012983065,0.019647501,-0.063760459,D
-0.024056613,0.01087757,0.014660999,-0.064249211,D
-0.023791254,0.009755048,0.008373808,-0.064714546,D
-0.01995784,0.021239664,-0.013580493,-0.065116003,D
-0.011036217,0.033267032,-0.033329055,-0.065332827,D
-0.006385386,0.051425528,-0.058234405,-0.065378909,D
-0.162390903,-1.25714612,-0.107672259,0.162598957,D
-0.147234797,-1.526678801,-0.083344288,0.158644066,D
-0.136774272,-1.81146419,-0.049260035,0.15407051,D
-0.185850933,-2.093883276,-0.045201108,0.148744809,D
-0.235979304,-2.354856491,-0.048039936,0.14272235,D
-0.268822581,-2.548754692,-0.074055552,0.136105121,D
-0.29315424,-2.751834154,-0.070194185,0.129110594,D
-0.315676302,-2.938891411,-0.086531617,0.121774071,D
-0.31459704,-3.085411787,-0.115094014,0.114083013,D
-0.300952822,-3.263460636,-0.136026457,0.106190099,D
-0.294799745,-3.387232304,-0.207190394,0.098000237,D
-0.289471596,-3.46174407,-0.340581983,0.089638429,D
-0.279916972,-3.511784554,-0.528336823,0.081091546,D
-0.281511813,-3.570588827,-0.746313632,0.072380167,D
-0.299495667,-3.666728258,-0.99391675,0.063294899,D
-0.330628663,-3.78228569,-1.257710576,0.05371041,D
-0.332957327,-3.869148493,-1.561671019,0.043678003,D
-0.298142672,-3.946645737,-1.841934323,0.033288553,D
-0.301536322,-4.033703804,-2.12864852,0.022546309,D
-0.317674041,-4.060878277,-2.417066336,0.011666345,D
-0.30321908,-4.081763268,-2.714249134,0.000839382,D
-0.299038738,-4.124657631,-2.959968805,-0.009947756,D
-0.319011718,-4.089457512,-3.183930635,-0.020673099,D
-0.335920304,-4.035656452,-3.365582228,-0.030758388,D
-0.323514134,-4.051043034,-3.516419888,-0.040359978,D
-0.351830453,-4.025807858,-3.664535046,-0.049702381,D
-0.394436002,-4.005356789,-3.818425894,-0.058580556,D
-0.375001043,-4.053425789,-3.921430111,-0.067255834,D
-0.322416067,-4.040527821,-4.011175156,-0.075678235,D
-0.266977191,-4.181845188,-4.120472908,-0.083984135,D
-0.235523894,-4.346316338,-4.231599331,-0.092627024,D
-0.211809844,-4.59335041,-4.218392849,-0.101704073,D
-0.228032097,-5.047596931,-4.143959999,-0.112268454,D
-0.265246123,-5.28127718,-4.160256863,-0.123946136,D
-0.276854038,-5.673622608,-4.028456688,-0.136638676,D
-0.39274472,-6.110382557,-3.870519638,-0.150846731,D
-0.57860297,-6.377671242,-3.79338479,-0.165604871,D
-0.726927638,-6.815647125,-3.737634659,-0.181105682,D
-0.862792432,-6.931544781,-3.781813622,-0.196362309,D
-0.965435147,-7.046282291,-3.741120338,-0.210830473,D
-1.15946424,-7.220525742,-3.747005701,-0.224432393,D
-1.371943474,-7.282189369,-3.860365152,-0.236348607,N
-1.534283757,-7.272829533,-3.987396002,-0.2457097,N
-1.72269094,-7.045481205,-4.164133072,-0.251290416,N
-1.854374647,-6.564498901,-4.436381817,-0.252016176,N
-1.910518169,-6.114892006,-4.758728981,-0.246787924,D
-1.742108107,-5.492294312,-5.295802593,-0.23485003,D
-1.43816638,-4.807681561,-5.868033409,-0.216431968,D
-1.326917887,-4.008733749,-6.367563248,-0.192284012,D
-1.317015886,-3.145907164,-6.721439362,-0.162677341,D
-1.257036328,-2.306074381,-6.969919682,-0.127584949,D
-1.104346037,-1.485086083,-7.177526474,-0.087263378,D
-0.875504136,-0.655470908,-7.345608711,-0.042120397,D
-0.659322083,0.081844158,-7.433453083,0.00694186,D
-0.557142854,0.711241782,-7.61032629,0.059164319,D
-0.529701948,1.361924648,-7.876940727,0.116441443,D
-0.599184573,2.147332907,-8.030031204,0.179532822,D
-0.774801135,2.888774157,-7.876253128,0.246306058,D
-0.968119919,3.759860992,-7.524540901,0.31415334,D
-1.07783401,4.564795017,-6.956813812,0.380798235,D
-1.148534775,5.10816431,-6.525254726,0.44477622,D
-1.254828572,5.819926262,-5.979927063,0.506559415,D
-1.368415117,6.434201717,-5.202519894,0.564796257,D
-1.529525042,6.772368431,-4.67349577,0.619414111,D
-1.637910724,7.176733017,-4.089637756,0.670350275,D
-1.588792205,7.548280239,-3.545987844,0.717089618,D
-1.549060106,7.668741226,-2.876173019,0.75888714,D
-1.576158404,7.669297218,-2.323360682,0.796025021,D
-1.478133678,7.779510975,-1.808159947,0.828892915,D
-1.340592504,7.838934422,-1.362148643,0.857996625,D
-1.299896836,7.824913502,-0.916326523,0.883242626,D
-1.312262058,7.844585419,-0.432924181,0.904561308,D
-1.356820583,7.816408157,0.017319154,0.921902611,D
-1.37800169,7.773611546,0.459325582,0.943592679,D
-1.336903572,7.676953316,0.774591565,0.949777677,D
-1.278517127,7.592520714,1.03878212,0.95291199,D
-1.244170666,7.413101673,1.235188842,0.953172335,D
-1.226716995,7.302362919,1.415253401,0.950851733,D
-1.226329565,7.050547123,1.560308337,0.946122723,D
-1.227959633,6.732003212,1.645412087,0.939287741,D
-1.192668319,6.473542213,1.841804743,0.93050481,D
-1.16729331,6.196237087,2.00893259,0.919905105,D
-1.153861284,5.78467226,1.900256634,0.908093922,D
-1.117917776,5.339373589,1.808844924,0.895690371,D
-1.145960927,4.826122761,1.748205304,0.882915426,D
-1.190051079,4.214192867,1.556759119,0.870311834,D
-1.217448235,3.731681585,1.445286393,0.85815874,D
-1.278959274,3.245522976,1.479844093,0.846377946,D
-1.33551538,3.041418791,1.449367285,0.834829662,D
-1.260886908,2.794449806,1.366457462,0.82355106,D
-1.138308406,2.498853922,1.355718374,0.812755143,D
-1.03836453,2.39639616,1.246126175,0.802219205,D
-0.883615792,2.172176123,1.049785137,0.79238115,D
-0.727600694,1.977416635,0.822450042,0.783384625,D
-0.595350921,1.69869101,0.498924226,0.775397668,D
-0.468537182,1.399777055,0.250406832,0.768792691,D
-0.378412753,0.985596418,0.015157413,0.763795915,D
-0.253201574,0.579978883,-0.229921043,0.760625824,D
-0.111560166,0.459659904,-0.499580443,0.759126314,N
-0.037512779,0.258260995,-0.62026453,0.758751737,N
-0.014105767,0.003732575,-0.553149998,0.759078147,N
0.000508636,-0.0621511,-0.463493317,0.760273207,N
-0.094635636,-0.221446484,-0.429236442,0.762082734,N
-0.190383226,-0.540380776,-0.393337309,0.764520131,N
-0.23991546,-0.787065148,-0.437321603,0.767635198,N
-0.268868029,-1.089989662,-0.557636023,0.771731541,N
-0.332031816,-1.416218877,-0.644928277,0.776939491,D
-0.386832505,-1.693530679,-0.824220836,0.783213634,D
-0.392078787,-1.904110312,-1.006189823,0.790566834,D
-0.399649888,-2.108721256,-1.174669623,0.798751373,D
-0.46218583,-2.276801109,-1.283202291,0.807616248,D
-0.506570935,-2.405879021,-1.409620404,0.817000131,D
-0.516092896,-2.505066872,-1.477103829,0.826854559,D
-0.519369841,-2.581322432,-1.523821592,0.836964177,D
-0.514880478,-2.744007587,-1.499360323,0.847162914,D
-0.490301251,-2.892692566,-1.484125495,0.857378381,D
-0.451513886,-3.012175798,-1.497520685,0.867682682,D
-0.424647093,-3.121579885,-1.497577667,0.877910033,D
-0.428365767,-3.296004772,-1.504935503,0.887822427,D
-0.449778318,-3.494671345,-1.520915508,0.897472759,D
-0.468500912,-3.631762981,-1.501614213,0.906829534,D
-0.464931905,-3.786147118,-1.481262088,0.915774747,D
-0.448109269,-3.95564723,-1.446014881,0.92422659,D
-0.422290921,-4.095893383,-1.37662673,0.931998355,D
-0.402306259,-4.23680687,-1.312070847,0.938936045,D
-0.373036683,-4.397591591,-1.237032056,0.944975099,D
-0.321393788,-4.568303585,-1.127970099,0.950059204,D
-0.268502355,-4.524871826,-1.082146645,0.95413064,D
-0.227409422,-4.647506237,-1.024649024,0.957226187,D
-0.22451514,-4.768435001,-0.908439338,0.959310093,D
-0.226792425,-4.753973484,-0.714805126,0.960134796,D
-0.202076763,-4.717419624,-0.524936557,0.959521196,D
-0.164405584,-4.747962475,-0.406238943,0.957729716,D
-0.106248319,-4.77023077,-0.297166497,0.954870069,D
-0.052418441,-4.764755726,-0.139957458,0.950903157,D
-0.064684182,-4.712236881,-0.035663262,0.945948735,D
-0.108655453,-4.69760561,0.027581431,0.939955254,D
-0.106421649,-4.604177952,0.181734785,0.932729028,D
-0.086821795,-4.528616428,0.288673967,0.924501403,D
-0.060434282,-4.420081139,0.341552347,0.915472744,D
-0.016316831,-4.339904308,0.485735834,0.90559146,D
-0.054501712,-4.334107399,0.602919698,0.89497803,D
-0.122547373,-4.289885521,0.717812717,0.883490375,D
-0.131320566,-4.226142406,0.792805493,0.871188264,D
-0.221720219,-2.416459799,-0.983769834,0.103373989,D
-0.185182214,-2.539872646,-1.140362263,0.099480268,D
-0.179182172,-2.688144684,-1.285304666,0.095225411,D
-0.207684577,-2.807988405,-1.45323348,0.090688889,D
-0.230087578,-2.947915554,-1.621910691,0.085867064,D
-0.214434564,-3.073702097,-1.773186207,0.080702123,D
-0.19611901,-3.169678926,-1.962822676,0.075257941,D
-0.179056048,-3.23787117,-2.132167816,0.069548316,D
-0.195353389,-3.295531273,-2.262886047,0.063642778,D
-0.237627685,-3.285765409,-2.397068739,0.057644774,D
-0.259598076,-3.308518887,-2.522154808,0.051749795,D
-0.291996926,-3.366859674,-2.632255793,0.045713347,D
-0.365815461,-3.385568857,-2.764411688,0.039407733,D
-0.378269792,-3.266183138,-2.920161963,0.033283615,D
-0.319269627,-3.175300837,-3.084714413,0.027639034,D
-0.257437468,-3.118828773,-3.288722992,0.022408952,D
-0.217463896,-3.02702117,-3.4966259,0.017662554,D
-0.208261818,-3.005125046,-3.687696695,0.013450384,D
-0.232428625,-3.047162056,-3.844807386,0.00937918,D
-0.277415007,-3.140389681,-3.920427561,0.005226171,D
-0.329024434,-3.292024612,-3.947956562,0.000640953,D
-0.34439075,-3.530283928,-3.94294548,-0.004761265,D
-0.331243098,-3.799759865,-3.938234568,-0.011330864,D
-0.327302665,-4.061117172,-3.886446238,-0.019002768,D
-0.325920135,-4.272893429,-3.783632755,-0.027750071,D
-0.327721357,-4.557900429,-3.581212521,-0.037817816,D
-0.343232334,-4.819683075,-3.405644655,-0.049632608,D
-0.322213113,-4.983575344,-3.306154966,-0.062394984,D
-0.305412143,-5.237096786,-3.16877079,-0.075762467,D
-0.370772094,-5.478363991,-3.080815792,-0.089475889,D
-0.402377725,-5.634757042,-3.082467556,-0.103122776,D
-0.366685569,-5.764464855,-3.112938404,-0.116266285,D
-0.362442315,-5.719348431,-3.066376686,-0.128848963,D
-0.43112576,-5.676898003,-2.891974211,-0.141266035,D
-0.577253044,-5.626282692,-2.888373852,-0.152921501,N
-0.635080814,-5.567392826,-2.8887465,-0.162562345,N
-0.675268829,-5.509089947,-2.970917463,-0.169795924,N
-0.681487083,-5.335231304,-3.173639536,-0.174215329,N
-0.621489108,-5.232600689,-3.376355648,-0.176402299,N
-0.659739673,-5.103467464,-3.572778463,-0.176274316,N
-0.726751864,-5.012098312,-3.802201986,-0.173361499,D
-0.734991372,-4.911486149,-4.05533886,-0.166813603,D
-0.755434334,-4.734182358,-4.281896114,-0.156105582,D
-0.767650545,-4.425898552,-4.587081432,-0.140570201,D
-0.735521615,-3.943588972,-4.862263203,-0.120130645,D
-0.723802924,-3.442600965,-5.099768162,-0.094849274,D
-0.717850626,-2.874775171,-5.278340816,-0.065207704,D
-0.655132711,-2.18740654,-5.453528881,-0.031887376,D
-0.575691462,-1.538552284,-5.59165287,0.004597883,D
-0.522416413,-0.792117417,-5.663538933,0.043614096,D
-0.509465098,-0.086720623,-5.763833523,0.084355792,D
-0.555384457,0.460177898,-5.755132198,0.127148758,D
-0.634743869,0.898506761,-5.818843365,0.172115631,D
-0.650837481,1.420331836,-5.905812263,0.219364122,D
-0.652217865,1.992628336,-5.930047035,0.268365389,D
-0.688558936,2.525026798,-5.858397007,0.31751289,D
-0.776720583,3.101144552,-5.73728323,0.366412695,D
-0.883093536,3.702366352,-5.707342148,0.415743426,D
-0.972948551,4.43235302,-5.573542118,0.465864972,D
-1.077789426,5.101929665,-5.307183743,0.515482102,D
-1.208015323,5.738175392,-4.946552277,0.563262014,D
-1.345843315,6.306881905,-4.542429924,0.608723579,D
-1.426501393,6.755604267,-4.066743851,0.651136723,D
-1.47117424,7.187205315,-3.630012035,0.691075812,D
-1.510197878,7.414415836,-3.140856504,0.728344121,D
-1.521765113,7.55524683,-2.719378948,0.762886878,D
-1.427547812,7.792181969,-2.38456583,0.795162754,D
-1.286908984,7.926174164,-2.107661486,0.825046632,D
-1.245760322,8.044859886,-1.838398933,0.852234324,D
-1.291087627,8.110924721,-1.418685794,0.876085995,D
-1.344495058,7.969554901,-0.990981221,0.896482037,D
-1.29281497,7.969090939,-0.665853262,0.913596965,D
-1.162626147,8.068426132,-0.498907179,0.927912612,D
-1.089838743,7.961126804,-0.204958126,0.939029012,D
-1.097205877,7.973814964,0.097556733,0.946914218,D
-1.076469421,7.859760284,0.358775556,0.951614603,D
-1.030498743,7.659928322,0.544696152,0.953266648,D
-0.980954766,7.451280594,0.822822571,0.95189805,D
-1.008721471,7.167405605,1.086694837,0.947844113,D
-1.051672935,6.800036907,1.200569749,0.941460767,D
-1.014942884,6.32380867,1.279332042,0.933286034,D
-1.02202189,5.829993248,1.437607169,0.923628617,D
-1.04478097,5.433742046,1.504843116,0.912808063,D
-0.993682802,4.972085953,1.554026961,0.901355615,D
-0.986949444,4.742845535,1.683570385,0.889367137,D
-1.036916733,4.495381355,1.722864628,0.876820559,D
-1.091060877,4.357588291,1.784594774,0.863860614,D
-1.202002764,4.147333622,1.896362305,0.850318612,D
-1.275352836,3.908521175,1.918640256,0.836618755,D
-1.289566398,3.643986464,1.875628114,0.823042825,D
-1.272160053,3.298644781,1.740561128,0.810243164,D
-1.165568829,2.986708164,1.516278505,0.798695367,D
-0.96198523,2.651604891,1.151447892,0.788490716,D
-0.784030795,2.294422388,0.793595672,0.779934676,D
-0.653230667,2.028272867,0.405553371,0.773094129,N
-0.450110823,1.726911426,-0.032622095,0.767881325,N
-0.209788769,1.43179512,-0.367172211,0.76418118,N
-0.072810441,1.150769353,-0.551017642,0.761890482,N
-0.052204251,0.948676705,-0.636064231,0.760768136,N
-0.109072357,0.773662329,-0.673450172,0.760745749,N
-0.137412101,0.549777567,-0.731301427,0.761618875,N
-0.150579661,0.275017887,-0.759721339,0.763323455,N
-0.189576507,-0.098277673,-0.815355957,0.765706903,N
-0.263414741,-0.495152056,-0.845502138,0.769051296,N
-0.332034409,-0.833566308,-0.846282482,0.77346205,D
-0.399437696,-1.192043781,-0.844861686,0.778941936,D
-0.463451862,-1.524985313,-0.88135916,0.785486467,D
-0.485500425,-1.775128007,-0.870212495,0.792983031,D
-0.504507303,-2.0019238,-0.93434763,0.80117718,D
-0.539236426,-2.270445824,-1.01866436,0.809911738,D
-0.539518952,-2.483389378,-1.108729839,0.819301263,D
-0.527026117,-2.653894901,-1.177153587,0.829309301,D
-0.551314473,-2.797212362,-1.226305366,0.839716731,D
-0.553851128,-2.954553366,-1.234752417,0.850260049,D
-0.510772347,-3.101314306,-1.248954415,0.86072797,D
-0.468897641,-3.261891127,-1.248341799,0.870988306,D
-0.44358632,-3.4055686,-1.208282232,0.88105522,D
-0.435079664,-3.518686533,-1.127989531,0.890843252,D
-0.453289717,-3.637117147,-1.06445086,0.900347203,D
-0.446120381,-3.710770369,-0.989983976,0.909439785,D
-0.410063922,-3.784478903,-0.938593388,0.917953296,D
-0.38105458,-3.888582468,-0.904026866,0.925859545,D
-0.351157546,-3.959262133,-0.824796617,0.933142554,D
-0.327001572,-4.040516853,-0.724712133,0.939695266,D
-0.32877478,-4.153790474,-0.60316366,0.945479337,D
-0.330840111,-4.252988338,-0.461823314,0.950458328,D
-0.29167375,-4.317732334,-0.345742017,0.954596455,D
-0.244780123,-4.319123268,-0.20452258,0.957802188,D
-0.247347236,-4.293875694,-0.045338154,0.959991405,D
-0.264805824,-4.234033585,0.058929928,0.961159857,D
-0.251929283,-4.267248154,0.152276486,0.961439511,D
-0.219233811,-4.306809902,0.242030352,0.961022063,D
-0.160464048,-4.317411423,0.306002885,0.959980651,D
-0.103260905,-4.34276104,0.317755938,0.95838418,D
-0.106833845,-4.287993431,0.365476102,0.95607008,D
-0.142477214,-4.208619595,0.443665713,0.95285746,D
-0.156303436,-4.103954315,0.485795289,0.948813126,D
-0.123574018,-4.001401424,0.485759318,0.944185992,D
-0.089561403,-3.894937038,0.50442493,0.938991254,D
-0.09899056,-3.814384699,0.575676501,0.933279762,D
-0.140664205,-3.775563478,0.61410284,0.927147286,D
-0.14654313,-3.76179409,0.652426004,0.920479664,D
-0.111823976,-3.697753429,0.672232807,0.913112802,D
-0.064003214,-3.632332802,0.699870825,0.904996449,D
-0.048566729,-3.585787773,0.752264917,0.896177316,D
-0.066476554,-3.480377674,0.785934985,0.887007814,D
-0.077655248,-3.380038738,0.82463634,0.87769961,D
-0.080467917,-3.263645649,0.886423528,0.868299271,D
-0.09176486,-3.145615101,1.009006977,0.858399669,D
-0.075766236,-3.116487503,1.110762596,0.847816555,D
-0.061379284,-3.075613737,1.21313262,0.836519567,D
-0.044813059,-3.066282749,1.294543266,0.824598078,D
-0.00871717,-3.026083469,1.354887962,0.8121019,D
0.002803553,-2.887295485,1.343970895,0.799574254,D
-0.00992487,-2.772517204,1.310301661,0.787282816,D
-0.010402963,-2.732610941,1.286804795,0.775190139,D
0.009521045,-2.666207552,1.321611285,0.762874227,D
0.035814121,-2.558568954,1.432340264,0.749703779,D
0.014799431,-2.457927227,1.540255308,0.735599518,D
-0.023652926,-2.401538849,1.642390251,0.720638601,D
-0.388988763,-3.954772234,-1.066367149,0.796615001,D
-0.367028147,-4.057806969,-0.971595645,0.808576603,D
-0.373254687,-4.137070179,-0.873824596,0.819953795,D
-0.369224876,-4.22709322,-0.755005002,0.830678408,D
-0.340637267,-4.320786953,-0.672440708,0.840781359,D
-0.298833698,-4.42433691,-0.635358334,0.850370576,D
-0.239426732,-4.478142738,-0.591677308,0.859390954,D
-0.192439884,-4.531785488,-0.514072537,0.867676595,D
-0.193003982,-4.596051693,-0.436233997,0.875193641,D
-0.202617526,-4.639498234,-0.334666103,0.881862534,D
-0.183177829,-4.654369831,-0.188955784,0.887512733,D
-0.169692218,-4.597802639,-0.045661729,0.892092688,D
-0.190081298,-4.567492008,0.080497749,0.895687405,D
-0.21186012,-4.551920891,0.207410157,0.898445077,D
-0.185299873,-4.458163261,0.283120662,0.900200954,D
-0.144742966,-4.457014084,0.401560754,0.901057511,D
-0.138855308,-4.414616108,0.449107617,0.901236757,D
-0.095966578,-4.413774967,0.492138177,0.900639853,D
-0.048569769,-4.337956905,0.545578718,0.898947476,D
-0.06573084,-4.27120018,0.607980072,0.896036211,D
-0.139100134,-4.219626427,0.676060081,0.892307214,D
-0.210983396,-4.195354939,0.75082618,0.887875143,D
-0.229107648,-4.162102222,0.866928518,0.882715841,D
-0.210478798,-4.080588341,0.934560597,0.876904506,D
-0.177500129,-3.979006052,0.968103647,0.870452618,D
-0.146925747,-3.949960232,1.036497355,0.862952794,D
-0.119654968,-3.884212494,1.167257428,0.853949302,D
-0.090289079,-3.893158674,1.227352381,0.843800755,D
-0.097411737,-3.854725361,1.237321615,0.83362991,D
-0.130704537,-3.765368938,1.223795414,0.823792161,D
-0.131027639,-3.704384804,1.254158854,0.814138755,D
-0.161580309,-3.583300829,1.369667888,0.803720428,D
-0.186531112,-3.525660515,1.522247314,0.791909341,D
-0.200694531,-3.460716009,1.66363132,0.778363703,D
-0.172462136,-3.350084543,1.784239292,0.763059295,D
-0.139518514,-3.237510204,1.832547665,0.747247905,D
-0.117837325,-3.153563261,1.770872474,0.732559183,D
-0.090029225,-3.103609085,1.718797803,0.719846593,D
-0.096212715,-3.029263496,1.741367817,0.708037305,D
-0.141567439,-2.961716175,1.850095868,0.695427833,D
-0.186216801,-2.846724272,1.952056885,0.68137007,D
-0.154815167,-2.740238428,2.01978302,0.666071518,D
-0.083526909,-2.633975267,2.067893028,0.650637447,D
-0.081934124,-2.494128227,2.151379585,0.635384815,D
-0.132178992,-2.461794376,2.196212292,0.620659632,D
-0.174247921,-2.422915459,2.188724041,0.606658421,D
-0.141346872,-2.359131813,2.182471275,0.593020226,D
-0.066651195,-2.206017494,2.159042835,0.579087969,D
-0.014119774,-2.042574644,2.141489744,0.564538268,D
-0.002108216,-1.9910779,2.140404701,0.549681518,D
-0.036860645,-1.860720992,2.162495375,0.535164717,D
-0.097445071,-1.724739194,2.188914776,0.521168084,D
-0.134240031,-1.685820222,2.158589602,0.507866182,D
-0.115237355,-1.604335785,2.101294279,0.495244569,D
-0.052169502,-1.524834037,2.049197197,0.482642859,D
-0.033286572,-1.477259874,1.99620676,0.469861456,D
-0.041468561,-1.409246683,1.950805664,0.456953504,D
-0.026751876,-1.336130738,1.907302976,0.444010345,D
-0.017851651,-1.26374042,1.883508444,0.431118224,D
-0.030124724,-1.166887045,1.896532178,0.418656537,D
-0.055203199,-1.087385058,1.880764246,0.407226433,D
-0.06224519,-1.033876538,1.84183228,0.396760195,D
-0.027819395,-0.974137306,1.793954372,0.386829397,D
0.016988635,-0.928761303,1.736787558,0.376906787,D
0.033319831,-0.901315808,1.663178921,0.36698843,D
0.033084631,-0.850276828,1.575798512,0.357354094,D
-0.137890846,-2.286125183,0.071839541,0.340865857,D
-0.143753946,-2.384321928,-0.04803253,0.341149956,D
-0.167133957,-2.482541323,-0.16416797,0.341334657,D
-0.196090966,-2.553224802,-0.295762748,0.341463214,D
-0.216519326,-2.628828287,-0.428719521,0.341596717,D
-0.238427639,-2.696519375,-0.577470958,0.341572739,D
-0.241934597,-2.769894123,-0.726916611,0.341296777,D
-0.218905479,-2.818039894,-0.864756227,0.340798417,D
-0.205874801,-2.82868886,-1.031447768,0.340201593,D
-0.210369289,-2.815163612,-1.217416406,0.339526584,D
-0.2229864,-2.838121653,-1.381714225,0.338686498,D
-0.24290508,-2.867532969,-1.55306685,0.337480243,D
-0.276777536,-2.897236347,-1.733935952,0.335717641,D
-0.30447343,-2.888168335,-1.903521538,0.333413261,D
-0.322683394,-2.944568396,-2.078950882,0.330512639,D
-0.339847386,-2.957885265,-2.232132435,0.326943097,D
-0.325259298,-2.992403746,-2.348514318,0.322793236,D
-0.309720635,-2.967372894,-2.468168736,0.318082721,D
-0.306646287,-2.897155046,-2.573157072,0.313165503,D
-0.289152384,-2.825115442,-2.672912121,0.308038615,D
-0.273465633,-2.754235983,-2.76424408,0.302715764,D
-0.273965627,-2.819138527,-2.892113209,0.296880583,D
-0.282146871,-2.840180874,-2.96419692,0.290276917,D
-0.292800009,-2.939581156,-3.006646872,0.282956438,D
-0.29209131,-3.118822098,-3.08484745,0.274410363,D
-0.285011262,-3.21221447,-3.141154528,0.264842094,D
-0.278254628,-3.354206562,-3.155131817,0.254332204,D
-0.309738725,-3.533825397,-3.102556705,0.242578003,D
-0.342043579,-3.763028145,-3.124639273,0.229449773,D
-0.36736393,-4.077375412,-3.04680419,0.214835309,D
-0.429195613,-4.445032597,-2.977384329,0.198290632,D
-0.460682333,-4.745408058,-3.036787987,0.180241721,D
-0.447894394,-4.938755989,-3.054347515,0.161648686,D
-0.476865053,-5.18676424,-2.985851288,0.142508714,D
-0.499898225,-5.257765293,-3.068615198,0.123375507,D
-0.441356152,-5.337023258,-3.059721231,0.104585957,D
-0.462795079,-5.470803738,-2.966543436,0.085751846,D
-0.50366652,-5.395195007,-2.915199518,0.067377852,D
-0.477137387,-5.379519939,-2.735021591,0.049402525,D
-0.574622273,-5.366857052,-2.616844654,0.032272049,D
-0.647769272,-5.316972733,-2.604728222,0.01681109,D
-0.63389504,-5.349877357,-2.588599443,0.003016534,N
-0.671027243,-5.420953274,-2.663838625,-0.008810059,N
-0.696076691,-5.49600172,-2.782700539,-0.018834,N
-0.730243444,-5.588123322,-2.90626955,-0.027194307,N
-0.836318731,-5.587117195,-3.054772377,-0.033103809,N
-0.869614124,-5.407094955,-3.214477777,-0.03565146,D
-0.9125067,-5.158005238,-3.332480431,-0.034425303,D
-1.025244951,-4.914687157,-3.613377571,-0.027709759,D
-1.0389961,-4.529222012,-3.985022783,-0.0148956,D
-0.9313941,-4.040728092,-4.394326687,0.003056837,D
-0.809686005,-3.444246292,-4.821042538,0.026256602,D
-0.727024019,-2.751311541,-5.149294376,0.054179097,D
-0.650232315,-2.040940046,-5.456199169,0.086812824,D
-0.573745549,-1.235369444,-5.777593136,0.124162471,D
-0.518044055,-0.388049573,-5.989371777,0.165444177,D
-0.546359122,0.363922179,-6.013912201,0.209058526,D
-0.630957842,1.045748591,-6.001678467,0.252915664,D
-0.703938842,1.5060606,-5.955914974,0.296238168,D
-0.753162622,1.924430966,-6.004381657,0.339375879,D
-0.732343316,2.326206446,-6.086046696,0.382996541,D
-0.703505278,2.844016314,-6.082468033,0.427230688,D
-0.73615557,3.367976904,-5.981472969,0.471497633,D
-0.847086787,3.951162338,-5.817353249,0.515616382,D
-0.966144383,4.62153101,-5.593055725,0.558353769,D
-1.094598293,5.237018585,-5.22702837,0.598833179,D
-1.21620965,5.823212147,-4.775731564,0.635688987,D
-1.283320904,6.363083839,-4.400960445,0.669498806,D
-1.331885934,6.70020628,-3.939026356,0.701123286,D
-1.375638723,6.996870041,-3.560081005,0.731476968,D
-1.319648504,7.374913216,-3.13581109,0.759923449,D
-1.267860889,7.662895679,-2.769673586,0.786000634,D
-1.302913904,7.896407604,-2.44544363,0.809633838,D
-1.296284914,7.939335346,-2.105205059,0.830905474,D
-1.223150015,8.1882267,-1.778897047,0.849889283,D
-1.18940115,8.411004066,-1.372257113,0.866045409,D
-1.286668777,8.317732811,-0.974039912,0.879497688,D
-1.353958011,8.339655876,-0.616898596,0.890389184,D
-1.269669294,8.465016365,-0.33684805,0.898046274,D
-1.238332629,8.52907753,-0.029700875,0.902295111,D
-1.255483031,8.550474167,0.246886358,0.903120987,D
-1.244450092,8.501779556,0.523448706,0.900600461,D
-1.205521584,8.461843491,0.754567325,0.894940037,D
-1.198623419,8.295306206,1.029604435,0.886423946,D
-1.264132619,7.857417583,1.287374258,0.87548888,D
-1.258398533,7.489993095,1.457823992,0.862576358,D
-1.255370617,6.970321178,1.640448689,0.847944134,D
-1.322843552,6.352985382,1.83541739,0.832382735,D
-1.347879648,5.807515144,1.958804011,0.816085807,D
-1.277489662,5.429234028,2.107718945,0.799212822,D
-1.203631163,5.148641109,2.129902363,0.781665592,D
-1.133574963,4.803678036,2.068262577,0.763978189,D
-1.201874256,4.547937393,2.296293259,0.746065122,D
-1.352196217,4.321906567,2.503696442,0.727538062,D
-1.403170586,4.284803391,2.498257637,0.708517246,D
-1.364008904,4.11397028,2.487650394,0.689094367,D
-1.30441463,3.826075077,2.306008101,0.670099502,D
-1.223705769,3.674536228,2.106580019,0.651855488,D
-1.128219604,3.318551302,1.890783787,0.634743021,D
-1.020420909,2.997195959,1.536265969,0.61924568,D
-0.78341639,2.742927313,1.179256558,0.605521216,D
-0.558217406,2.55130434,0.82028687,0.593513532,D
-0.355813116,2.269072056,0.551625013,0.583092105,D
-0.159336209,2.037073135,0.353964388,0.574385896,N
-0.022561103,1.909552693,0.108025774,0.567187908,N
0.00832358,1.663126588,-0.083847255,0.561295741,N
-0.026698351,1.405219674,-0.182976231,0.556859963,N
-0.06561473,1.062799454,-0.268580884,0.553842511,N
-0.117221862,0.555185914,-0.406250179,0.552556564,N
-0.139262885,0.339087933,-0.622762263,0.553123771,N
-0.132208139,0.119148389,-0.767132699,0.554935428,N
-0.23102963,-0.302250773,-0.706306398,0.557819778,N
-0.370403707,-0.500321805,-0.584265172,0.561732,D
-0.442073435,-0.736547112,-0.554642558,0.566447899,D
-0.101355225,-1.329558611,-0.425178796,0.359040021,D
-0.073697269,-1.486270905,-0.36493659,0.357812437,D
-0.065564603,-1.653685808,-0.329191387,0.356685537,D
-0.077720582,-1.80956161,-0.305759847,0.355674039,D
-0.078778148,-1.980311871,-0.31819573,0.35464904,D
-0.082600743,-2.112048149,-0.359299123,0.353373937,D
-0.083283305,-2.217096329,-0.402624249,0.352044877,D
-0.075199693,-2.308898449,-0.480296761,0.350613746,D
-0.081852496,-2.43233943,-0.539668202,0.348861614,D
-0.1003474,-2.494778156,-0.627792835,0.346895917,D
-0.069529682,-2.571332216,-0.731157541,0.344812338,D
-0.042699844,-2.665415287,-0.857087672,0.342474627,D
-0.062237948,-2.762846708,-1.0320189,0.339752044,D
-0.089437425,-2.837207556,-1.265164733,0.336504995,D
-0.10931465,-2.893295527,-1.518435121,0.332692569,D
-0.136252105,-2.878805161,-1.78878653,0.328340868,D
-0.147873789,-2.826908827,-2.077426672,0.323681872,D
-0.138874799,-2.744233847,-2.357937336,0.318889245,D
-0.133830845,-2.679270506,-2.62025094,0.314099068,D
-0.15153116,-2.617468119,-2.852885246,0.309252103,D
-0.199181646,-2.546751499,-3.0508008,0.304361974,D
-0.239124268,-2.516404629,-3.199633598,0.299433503,D
-0.243123353,-2.529454231,-3.293651342,0.2941175,D
-0.244140923,-2.467677116,-3.393229008,0.28844023,D
-0.236208603,-2.440061808,-3.46795845,0.282554028,D
-0.22818622,-2.555113316,-3.516238928,0.275989025,D
-0.272257626,-2.705370188,-3.479809761,0.268233861,D
-0.333658665,-2.872749805,-3.426834822,0.259111026,D
-0.358020544,-3.04270792,-3.374653578,0.248582016,D
-0.374063343,-3.2936306,-3.300937176,0.236444977,D
-0.421322644,-3.562548161,-3.278398275,0.222707853,D
-0.475880682,-3.691456556,-3.231829882,0.207951188,D
-0.501109481,-3.893923759,-3.173919439,0.192225205,D
-0.51969254,-4.114338398,-3.054982424,0.175267202,D
-0.040247977,-3.038889408,-0.451082587,0.324257053,D
-0.049720943,-3.075387478,-0.761093974,0.322774047,D
-0.093650043,-3.096815825,-1.061346531,0.320693838,D
-0.154598832,-3.08646369,-1.362333179,0.318147836,D
-0.194562554,-3.104080915,-1.633579135,0.315256363,D
-0.240465224,-3.08571744,-1.878926873,0.311975743,D
-0.301698118,-3.056481123,-2.103846312,0.30847174,D
-0.322627485,-3.083349705,-2.334194899,0.304650479,D
-0.33027944,-3.096291542,-2.534480095,0.300237418,D
-0.349812925,-3.134913206,-2.720081568,0.295286138,D
-0.36558339,-3.152493954,-2.902148485,0.289852404,D
-0.386729956,-3.188068628,-3.047929525,0.283926895,D
-0.424595028,-3.253552437,-3.19870019,0.277266549,D
-0.437154204,-3.343204498,-3.328325272,0.269814628,D
-0.426747143,-3.490320444,-3.391941786,0.261328075,D
-0.434222281,-3.624731302,-3.487043381,0.251748734,D
-0.419121236,-3.812022924,-3.51760149,0.241093785,D
-0.423372835,-4.04765749,-3.503407001,0.228915717,D
-0.427543402,-4.187731266,-3.520550489,0.215413685,D
-0.38368848,-4.404970169,-3.586313486,0.20096957,D
-0.403447986,-4.612565517,-3.588961363,0.185748537,D
-0.477634013,-4.794526577,-3.464407444,0.169665216,D
-0.500095487,-4.985719204,-3.445809126,0.152739028,D
-0.432192296,-5.084289551,-3.42256093,0.135439137,D
-0.367223918,-5.212945461,-3.380556107,0.117704239,D
-0.350233197,-5.382606983,-3.38172102,0.099442251,D
-0.324938893,-5.592992306,-3.344146013,0.080467277,D
-0.346564174,-5.765725613,-3.323549509,0.061418155,D
-0.416753709,-5.808390617,-3.361038208,0.043622981,D
-0.504018068,-5.795744896,-3.378684044,0.027789157,D
-0.645252347,-5.832528591,-3.344596386,0.013673438,D
-0.789707839,-5.874943256,-3.287497997,0.000844654,N
-0.846175075,-5.898707867,-3.298142195,-0.010670798,N
-0.827726364,-5.832978249,-3.324302435,-0.020017414,D
-0.79763633,-5.73193264,-3.440590858,-0.026427972,D
-0.793479562,-5.542822361,-3.633792162,-0.028940533,D
-0.790911496,-5.301845551,-3.906642437,-0.027010273,D
-0.827801049,-4.971368313,-4.227588177,-0.020099164,D
-0.863846898,-4.567718029,-4.5932827,-0.007997307,D
-0.84615916,-4.135761261,-4.979894638,0.009937852,D
-0.752035201,-3.528931618,-5.368215084,0.034140795,D
-0.589310944,-2.730874538,-5.755438328,0.064245308,D
-0.474113166,-1.880776405,-6.049586773,0.098769025,D
-0.434754312,-1.074182153,-6.295584679,0.137198507,D
-0.434031785,-0.242050305,-6.515547752,0.179397341,D
-0.456786752,0.545137525,-6.736948013,0.224974056,D
-0.536914766,1.213563204,-6.853594303,0.273396978,D
-0.661936581,1.919250488,-7.002815247,0.323575243,D
-0.745000899,2.72686553,-7.044318199,0.373950537,D
-0.871452987,3.513998032,-6.961811066,0.423871957,D
-1.046073914,4.353431702,-6.699228764,0.47225877,D
-1.206392884,5.182594299,-6.341193199,0.518436114,D
-1.374563694,5.790555477,-6.017639637,0.562327418,D
-1.542161465,6.435158253,-5.632926464,0.604637751,D
-1.628900647,7.074373722,-5.149506092,0.644884969,D
-1.642532349,7.447391033,-4.7711339,0.682074237,D
-1.781965494,7.809311867,-4.239851952,0.715398327,D
-1.844267607,7.893679619,-3.881547928,0.746344342,D
-1.786774874,8.187497139,-3.551615953,0.775892631,D
-1.721207142,8.196482658,-3.065268993,0.803427799,D
-1.760326862,8.368199348,-2.552846909,0.827883982,D
-1.727241278,8.541996956,-2.09177804,0.848842275,D
-1.66122818,8.635627747,-1.70887053,0.866112518,D
-1.697013736,8.656575203,-1.276111126,0.879747228,D
-1.746146917,8.62279892,-0.88875711,0.889982045,D
-1.719615459,8.555860519,-0.524083257,0.896777856,D
-1.610799909,8.474391937,-0.184540898,0.900166897,D
-1.523579359,8.395493507,0.156167209,0.90021513,D
-1.494282961,8.250061989,0.500161827,0.897238308,D
-1.465492249,7.986614227,0.749019027,0.891624457,D
-1.424693108,7.675159931,0.961046934,0.883733968,D
-1.392529964,7.385343075,1.244759321,0.873673662,D
-1.395377636,7.027747154,1.455171824,0.861521008,D
-1.408134937,6.450869083,1.603822827,0.847997249,D
-1.41049099,5.988621712,1.757304907,0.833556768,D
-1.401896238,5.595425606,1.877077937,0.818330454,D
-1.412268758,5.279026031,1.954228878,0.802474208,D
-1.380302787,4.897558689,2.017632723,0.786247044,D
-1.349234581,4.633989334,2.057991982,0.769654026,D
-1.396917462,4.392057896,2.234864235,0.752514006,D
-1.491564631,4.115036488,2.286769867,0.735013828,D
-1.503903031,3.872850657,2.322930813,0.717594891,D
-1.429784417,3.617826939,2.155550003,0.700674905,D
-1.245426893,3.306801319,1.83483243,0.685002848,D
-1.001725197,2.956192732,1.427511454,0.671017218,D
-0.842696428,2.611671686,0.993225276,0.65904612,D
-0.680571675,2.257965803,0.475607634,0.649302249,D
-0.459454626,1.852688074,0.077606991,0.641979794,D
-0.258829743,1.476401687,-0.261321783,0.636921474,N
-0.110658616,1.183310986,-0.625919461,0.633835354,N
-0.020121276,0.776491106,-0.827478766,0.632567048,N
0.011441648,0.375771403,-0.889151454,0.632880757,N
0.017884612,0.222018838,-0.987089753,0.634572918,N
0.017013848,0.006430624,-0.961775064,0.637075662,N
-0.045072615,-0.379535437,-0.855125546,0.640410982,N
-0.124359488,-0.66236341,-0.668234527,0.644562112,N
-0.218664676,-0.975055814,-0.571219623,0.649497591,D
-0.33624208,-1.342550755,-0.509269416,0.655336635,D
-0.397209466,-1.722408056,-0.485496163,0.662248994,D
-0.426236629,-2.021377802,-0.520080447,0.670212805,D
-0.418810666,-2.263684988,-0.58485347,0.679092573,D
-0.373613566,-2.450750113,-0.708432138,0.688715574,D
-0.321144521,-2.594966412,-0.814143002,0.698937142,D
-0.304556608,-2.775974512,-0.898644269,0.70961092,D
-0.32154429,-2.927965164,-0.981358171,0.72077249,D
-0.339058459,-3.042516947,-1.030187726,0.732232641,D
-0.377528727,-3.211103916,-1.073770523,0.743898822,D
-0.41434443,-3.410489559,-1.077712297,0.755788119,D
-0.416850507,-3.53643012,-1.052934527,0.76772151,D
-0.401030064,-3.584856749,-1.020062804,0.779451152,D
-0.372053981,-3.598961592,-0.962532163,0.790739122,D
-0.337548256,-3.657913923,-0.890873194,0.801523554,D
-0.313742638,-3.767174721,-0.807960272,0.811834441,D
-0.303377211,-3.899022579,-0.745593309,0.821760839,D
-0.30047524,-3.986238003,-0.701821387,0.831267071,D
-0.295360446,-4.076346397,-0.657810509,0.840311681,D
-0.296076953,-4.128751755,-0.611481905,0.848777591,D
-0.29558593,-4.217532158,-0.506287038,0.856576251,D
-0.277356148,-4.307579041,-0.408931166,0.863698611,D
-0.235732198,-4.366925716,-0.340841591,0.870144304,D
-0.184111118,-4.400958538,-0.263393253,0.875838165,D
-0.147860527,-4.370522022,-0.158315837,0.880583624,D
-0.14290309,-4.369593143,-0.062094018,0.884295993,D
-0.134871542,-4.338720322,0.04349073,0.887067128,D
-0.11150068,-4.183712006,0.057425398,0.888808258,D
-0.110037386,-4.324170589,0.14144972,0.88977041,D
-0.131909788,-4.313560963,0.252343327,0.889975614,D
-0.101436168,-4.206754684,0.370380491,0.888872559,D
-0.071438074,-4.177607536,0.498009235,0.886562887,D
-0.075198919,-4.213374615,0.579981565,0.883637318,D
-0.040177375,-4.234936237,0.584040642,0.880649983,D
0.007415652,-4.153373718,0.587527514,0.877431097,D
0.020873606,-4.009748459,0.620538533,0.873622179,D
-0.023546785,-3.924634695,0.706962585,0.869040739,D
-0.113601536,-3.949934483,0.777918756,0.863630253,D
-0.154438049,-3.853062391,0.863166273,0.856932673,D
-0.115823179,-3.837916613,1.039705515,0.848422478,D
-0.107389748,-3.79914999,1.135703444,0.839261407,D
-0.103149265,-3.628918886,1.099774599,0.830525134,D
-0.069325462,-3.471720934,1.111569524,0.822314098,D
-0.097366124,-3.46003437,1.174691916,0.814102218,D
-0.162775174,-3.454986811,1.294591427,0.80517823,D
-0.187225252,-3.409623623,1.447945356,0.794728073,D
-0.144241601,-3.36098671,1.539423823,0.782610611,D
-0.112796381,-3.326817751,1.569315434,0.769756556,D
-0.116518572,-3.287270069,1.529018641,0.757254752,D
-0.110819422,-3.169975042,1.431447148,0.745735046,D
-0.082959831,-3.052471399,1.371837616,0.734938424,D
-0.088376716,-2.949056864,1.38801825,0.723925912,D
-0.140045851,-2.869582415,1.459022641,0.711840293,D
-0.188371733,-2.823537588,1.606064916,0.698372656,D
-0.217876554,-2.822834492,1.717301488,0.684495738,D
-0.199965909,-2.7713871,1.717838168,0.671506146,D
-0.102419555,-2.714296103,1.622198701,0.660337491,D
-0.017170161,-2.568537235,1.545992732,0.650533821,N
-0.181122631,-1.94339323,-0.376536161,0.409641246,D
-0.162858099,-2.0941329,-0.318786383,0.409377275,D
-0.142999411,-2.220920086,-0.301245719,0.408967955,D
-0.130419254,-2.308089018,-0.265938967,0.408474865,D
-0.104312569,-2.408742666,-0.256491959,0.407973917,D
-0.076598734,-2.524647713,-0.272389293,0.407174632,D
-0.079964012,-2.652448893,-0.326802194,0.405934543,D
-0.09122777,-2.785593987,-0.422079325,0.404106136,D
-0.062046081,-2.89287281,-0.555033386,0.401600986,D
-0.038586825,-3.004671097,-0.756122351,0.398290231,D
-0.060861826,-3.097451925,-0.966509938,0.394147646,D
-0.126659691,-3.143277884,-1.154603243,0.389366669,D
-0.167556256,-3.2097404,-1.353485703,0.38408774,D
-0.165736586,-3.259987593,-1.582766771,0.378158826,D
-0.173653901,-3.287587166,-1.819830537,0.371604228,D
-0.183748096,-3.304418564,-2.1035707,0.364551527,D
-0.183457136,-3.321442842,-2.402189493,0.357037302,D
-0.193576247,-3.305435419,-2.690533876,0.349172316,D
-0.205905885,-3.246924877,-2.948025227,0.341154349,D
-0.209732533,-3.222824574,-3.178696871,0.333060745,D
-0.235784203,-3.194098234,-3.350133181,0.32469212,D
-0.296342015,-3.212721348,-3.429726362,0.315898845,D
-0.359306753,-3.25241065,-3.490232468,0.3064378,D
-0.398937821,-3.285019875,-3.471242189,0.296277872,D
-0.410893649,-3.401082993,-3.450987577,0.285182985,D
-0.388911813,-3.547924519,-3.400368929,0.272940846,D
-0.330018789,-3.728564978,-3.391195297,0.259459417,D
-0.272197068,-3.994624376,-3.373683453,0.244424951,D
-0.269647986,-4.407409191,-3.336763144,0.22749263,D
-0.357442617,-4.738038063,-3.311839581,0.208900149,D
-0.445010096,-5.078948021,-3.19822979,0.188726868,D
-0.488040477,-5.389438629,-3.155008793,0.166901463,D
-0.489635617,-5.591555595,-3.126210451,0.143990747,D
-0.495185912,-5.696696281,-3.195261955,0.121117292,D
-0.540836215,-5.719876766,-3.199145079,0.099308037,D
-0.607273281,-5.819768906,-3.227498055,0.078690923,D
-0.675411165,-5.845939159,-3.32592845,0.059278269,D
-0.684778154,-5.878302574,-3.365452528,0.040699394,D
-0.738567829,-5.92526865,-3.380789995,0.022745622,D
-0.881938338,-5.925168514,-3.397022963,0.005632449,D
-1.062785387,-5.872434139,-3.466154575,-0.009889494,D
-1.231322408,-5.739749908,-3.565929174,-0.022440387,N
-1.30363977,-5.727677822,-3.722973347,-0.031673506,N
-1.269477844,-5.60185051,-3.875209808,-0.037139208,D
-1.17422533,-5.28886795,-3.962804317,-0.038718535,D
-1.13618803,-4.982444286,-4.079072952,-0.036741742,D
-1.162599206,-4.570850849,-4.239490032,-0.031526062,D
-1.126189947,-4.162791252,-4.492310047,-0.022934329,D
-1.046179533,-3.827659607,-4.825703621,-0.010093276,D
-0.924851418,-3.485394716,-5.227592468,0.008355586,D
-0.759790659,-3.087929487,-5.668756008,0.032487304,D
-0.61110121,-2.439031363,-5.924923897,0.060994974,D
-0.574147165,-1.766834736,-5.96632719,0.091577622,D
-0.61849004,-1.210368752,-5.942182541,0.122169054,D
-0.569451749,-0.751337469,-5.98526001,0.153279449,D
-0.187189728,-1.262452006,-0.02725412,0.444396456,D
-0.20339039,-1.570098996,-0.004305927,0.443290622,D
-0.203106284,-1.809603691,-0.001294052,0.441804643,D
-0.203189254,-2.075868368,0.005071968,0.440009793,D
-0.2036933,-2.29082799,0.02503204,0.438050254,D
-0.192428797,-2.459621191,0.022112951,0.43605374,D
-0.166502446,-2.605994225,0.02558358,0.433968072,D
-0.141998559,-2.714055538,0.041653894,0.431847411,D
-0.140814662,-2.803496361,0.005864046,0.429642274,D
-0.14332208,-2.925585508,-0.050079916,0.427171476,D
-0.165133417,-2.99626708,-0.155858174,0.424354506,D
-0.16320163,-3.0799613,-0.310576379,0.421134753,D
-0.140200615,-3.188383102,-0.525671482,0.417181433,D
-0.15167886,-3.261811256,-0.779080808,0.412517185,D
-0.165244013,-3.342304468,-1.060284138,0.407170852,D
-0.16979602,-3.42495656,-1.351168752,0.401096548,D
-0.183935791,-3.463561058,-1.624842763,0.394305538,D
-0.206679165,-3.46644783,-1.916277289,0.386983628,D
-0.211963326,-3.391761065,-2.160902023,0.379415466,D
-0.214517832,-3.327881813,-2.354812384,0.37180508,D
-0.223675042,-3.236365557,-2.541221857,0.364077009,D
-0.217989773,-3.112949848,-2.736281157,0.356409209,D
-0.194391817,-3.03451395,-2.922083139,0.348786142,D
-0.189559072,-3.011211395,-3.053256035,0.340857654,D
-0.212261587,-2.940026283,-3.123348475,0.332578978,D
-0.22450982,-2.903893471,-3.164845228,0.323954495,D
-0.217443973,-2.960393667,-3.19096446,0.314639354,D
-0.213541895,-3.132179976,-3.172019958,0.304154902,D
-0.219510227,-3.282810211,-3.203788757,0.292399187,D
-0.196809337,-3.432213783,-3.271912336,0.279798474,D
-0.169760138,-3.714121819,-3.246377707,0.26591328,D
-0.182927519,-4.056857109,-3.219826937,0.250042691,D
-0.207995325,-4.458069324,-3.193261862,0.231884067,D
-0.267468482,-4.959782124,-3.134264708,0.211413867,D
-0.349477172,-5.413220882,-3.097002506,0.188987388,D
-0.407563895,-5.844129562,-3.001781464,0.165069638,D
-0.482743829,-6.263861656,-2.905869722,0.13956323,D
-0.501156211,-6.410576344,-3.083894014,0.114165947,D
-0.454555452,-6.480594158,-3.007265329,0.089611076,D
-0.577692389,-6.725456238,-2.841600418,0.065401234,D
-0.733593643,-6.740616322,-2.828889132,0.042272461,D
-0.725089014,-6.774166584,-2.839472532,0.02031922,D
-0.818858445,-6.70675993,-2.849043369,-0.000308438,D
-1.009514093,-6.55402422,-2.80191493,-0.018639384,D
-1.207378387,-6.456856728,-2.807534218,-0.034606262,N
-1.293187022,-6.21745491,-2.966816187,-0.046751521,N
-1.229937911,-6.038236618,-3.174072027,-0.054307284,N
-1.1725564,-5.844291687,-3.520883083,-0.056207586,D
-1.0344491,-5.295667648,-3.979747295,-0.05220084,D
-0.924728274,-4.754334927,-4.351225376,-0.042908436,D
-1.062589169,-4.272287846,-4.629730225,-0.028285234,D
-1.151854992,-3.605590105,-5.013119221,-0.008232306,D
-1.028306723,-2.825480938,-5.38824892,0.015721446,D
-0.908366621,-2.191460609,-5.671414375,0.042501801,D
-0.88848722,-1.648410797,-5.938423157,0.071850438,D
-0.793459058,-1.128781557,-6.221775055,0.104868571,D
-0.643633008,-0.576764345,-6.53048563,0.142390189,D
-0.565042913,0.061725568,-6.757865429,0.183478071,D
-0.587660849,0.617924094,-6.826385975,0.226085353,D
-0.680942178,1.126898289,-6.809351921,0.268813197,D
-0.766839027,1.667733312,-6.855648518,0.312163555,D
-0.823444366,2.083960533,-6.844962597,0.35657819,D
-0.903191686,2.523110628,-6.702122211,0.401891874,D
-0.984289348,3.040985823,-6.442678452,0.446770964,D
-1.039562941,3.411197186,-6.110877037,0.489753412,D
-1.119062185,3.814332485,-5.76468277,0.530220297,D
-1.136666775,4.25951004,-5.392002583,0.567962115,D
-1.137274742,4.546944618,-4.999006271,0.603108349,D
-1.18101275,4.800800323,-4.689213276,0.636494324,D
-1.172412395,5.063336849,-4.360201359,0.667985358,D
-1.12382257,5.296133995,-4.065826416,0.697460251,D
-1.096847534,5.527699471,-3.793072939,0.725336912,D
-1.112004757,5.723601341,-3.460180521,0.751711868,D
-1.205325603,5.868144989,-3.05849719,0.776104869,D
-1.33010757,6.011085033,-2.66322279,0.798008655,D
-1.403773189,6.100322723,-2.258765936,0.817033982,D
-1.41459167,6.180475235,-1.932686329,0.833313277,D
-1.35027802,6.316394806,-1.631979585,0.847152433,D
-1.273573875,6.381481171,-1.351885676,0.858824837,D
-1.244846821,6.4389925,-1.110060811,0.868252359,D
-1.179525018,6.590008259,-0.822597921,0.874939991,D
-1.12422967,6.64532423,-0.503066838,0.878750858,D
-1.13995266,6.662791729,-0.244226158,0.879983286,D
-1.134268522,6.784731388,-0.003464157,0.878714041,D
-1.119378209,6.816700459,0.215092033,0.874994492,D
-1.145467758,6.818303585,0.410186172,0.869086272,D
-1.151615143,6.799947739,0.519985497,0.861045471,D
-1.125418544,6.782461643,0.652785838,0.850978086,D
-1.102443218,6.683037758,0.786780119,0.838963035,D
-1.095821142,6.529179096,0.902464867,0.82545054,D
-1.11438489,6.385401249,0.986167789,0.81095141,D
-1.083458424,6.212079048,0.971240759,0.795644284,D
-1.024684429,5.984452724,0.857581079,0.780001112,D
-1.022275805,5.688648224,0.76992017,0.764335208,D
-1.089217782,5.287650108,0.703656673,0.748980166,D
-1.171412468,4.789484501,0.750507534,0.734071403,D
-1.279011965,4.359451294,0.681438982,0.720014563,D
-1.306446791,4.084530354,0.654095232,0.706614623,D
-1.217739582,3.706712246,0.597144186,0.693803584,D
-1.058727503,3.364650488,0.447013795,0.681979441,D
-0.856419206,3.070239782,0.358817071,0.67110353,D
-0.678176165,2.896160364,0.300263494,0.660764757,D
-0.52345562,2.667167425,0.11002171,0.651029244,D
-0.395611197,2.360522747,-0.070890814,0.642186079,D
-0.352998048,1.94071877,-0.11484655,0.63445038,D
-0.373267591,1.641162753,-0.141244069,0.627819794,D
-0.370599866,1.390364885,-0.227610335,0.622183911,D
-0.354581088,1.011770368,-0.327088982,0.61784582,D
-0.354890823,0.60796684,-0.455685526,0.615161452,D
-0.325539589,0.231959343,-0.544077694,0.614166956,D
-0.306155324,-0.255058765,-0.534213066,0.614777078,N
-0.283018023,-0.335721374,-0.655192196,0.616573769,N
-0.18552056,-0.449988842,-0.777577639,0.61906101,N
-0.094848484,-0.660225153,-0.712197304,0.62228777,N
-0.101772159,-0.823843122,-0.578695893,0.625751643,N
-0.148397833,-0.914678216,-0.379623026,0.629549035,N
-0.252650023,-0.953994751,-0.26080969,0.633488237,N
-0.273179442,-1.121400595,-0.175450832,0.637714339,D
-0.249391735,-1.356594682,-0.190309718,0.642558589,D
-0.213474393,-1.609829068,-0.251344055,0.648272067,D
-0.190131485,-1.800687671,-0.309042692,0.654785182,D
-0.188415617,-2.007288218,-0.341464013,0.661975519,D
-0.196971983,-2.191195726,-0.422094941,0.669801422,D
-0.193395942,-2.341152191,-0.500373483,0.678203745,D
-0.192990422,-2.524884462,-0.550322115,0.687116822,D
-0.220071733,-2.697885275,-0.560013652,0.696509918,D
-0.243207037,-2.861532688,-0.575830519,0.706247663,D
-0.260265827,-3.01796627,-0.598743081,0.716289311,D
-0.271975696,-3.171694279,-0.601382554,0.726579746,D
-0.268363535,-3.27499032,-0.589047372,0.736967457,D
-0.258567512,-3.358741999,-0.554518998,0.74727076,D
-0.263304293,-3.481052399,-0.539554715,0.757451126,D
-0.280312121,-3.666372776,-0.534354389,0.767689116,D
-0.288582802,-3.807753801,-0.491069794,0.777928371,D
-0.289979517,-3.940825462,-0.422200441,0.787965641,D
-0.301944077,-4.078382969,-0.351549953,0.797722398,D
-0.30142349,-4.190808296,-0.307963073,0.807181348,D
-0.284221768,-4.313097954,-0.291726857,0.816339745,D
-0.257162452,-4.403594971,-0.281553566,0.825190419,D
-0.219682157,-4.453142166,-0.284334213,0.833631521,D
-0.187340438,-4.510242462,-0.290357023,0.84166527,D
-0.175833106,-4.540409088,-0.29622981,0.849289177,D
-0.172356844,-4.584019661,-0.306393117,0.856395192,D
-0.166645765,-4.629386902,-0.27572149,0.862921441,D
-0.176442385,-4.691791534,-0.216884837,0.868749721,D
-0.185078561,-4.717386723,-0.144720882,0.873814032,D
-0.161211729,-4.698384285,-0.117227465,0.87805391,D
-0.132872343,-4.741027355,-0.116262347,0.881621016,D
-0.095679522,-4.763175011,-0.145381659,0.884752894,D
-0.053828001,-4.702968121,-0.181275487,0.887385102,D
-0.042373836,-4.624032974,-0.165143386,0.889223717,D
-0.06609726,-4.545888901,-0.14092806,0.890093595,D
-0.109027147,-4.477829933,-0.079929747,0.889906385,D
-0.154035628,-4.409750938,-0.009351713,0.888737546,D
-0.149126947,-4.401298046,0.063599616,0.886840083,D
-0.113254339,-4.369338989,0.157080844,0.884274834,D
-0.084721416,-4.282157421,0.240801245,0.880883371,D
-0.091733277,-4.203194618,0.307622343,0.876678319,D
-0.133892715,-4.139143944,0.388323396,0.871682597,D
-0.162596971,-4.067840099,0.470050484,0.865977887,D
-0.184910685,-4.002329826,0.576483548,0.859420145,D
-0.187757671,-4.011649132,0.645121753,0.852024605,D
-0.187362999,-3.951559544,0.766108155,0.843887191,D
-0.190976709,-3.875952482,0.824557364,0.835192816,D
-0.165673316,-3.798980713,0.855725586,0.826323508,D
-0.1536614,-3.71498394,0.888796985,0.817332261,D
-0.15871416,-3.632810354,0.95750922,0.807888423,D
-0.169499651,-3.567571402,1.058121324,0.797578193,D
-0.201915711,-3.502514362,1.161890149,0.786452165,D
-0.240068465,-3.39411664,1.242636919,0.77463863,D
-0.254874349,-3.335198164,1.315692306,0.762188988,D
-0.243675172,-3.304517031,1.347486734,0.749796647,D
-0.208401978,-3.246038437,1.35808146,0.737684975,D
-0.160967931,-3.164151669,1.389083266,0.725394839,D
-0.13587366,-3.084477186,1.417039156,0.712644429,D
-0.155669138,-2.969565868,1.481493235,0.699137462,D
-0.210498661,-2.860032558,1.605242014,0.684677627,D
-0.264004141,-2.80218792,1.699172854,0.66969215,D
-0.263070077,-2.730266333,1.720926404,0.655205654,D
-0.123464406,-2.363801479,-0.252674341,0.292605119,D
-0.113864064,-2.440843821,-0.408254355,0.292007169,D
-0.093092203,-2.52483201,-0.56597662,0.291203672,D
-0.076817155,-2.572302818,-0.750771463,0.290305584,D
-0.06606251,-2.623749971,-0.952821732,0.28935171,D
-0.075940967,-2.682206631,-1.1793468,0.288289848,D
-0.11132127,-2.760271072,-1.406782389,0.286919882,D
-0.162070811,-2.822606087,-1.624128461,0.285205801,D
-0.194322944,-2.90590024,-1.832686424,0.283052289,D
-0.231198251,-2.979272366,-2.013727665,0.280338042,D
-0.279293239,-3.040413141,-2.179307938,0.277133523,D
-0.306948006,-3.097676277,-2.347881317,0.273482597,D
-0.322090238,-3.111572981,-2.533860683,0.269431851,D
-0.311773926,-3.154174089,-2.719222307,0.265031912,D
-0.317029387,-3.182445526,-2.880521536,0.260191746,D
-0.350734532,-3.20429039,-3.005972147,0.254983655,D
-0.375005513,-3.221622705,-3.067050934,0.249392557,D
-0.39338845,-3.252980709,-3.102508068,0.243309653,D
-0.408833325,-3.278312922,-3.120085716,0.236698734,D
-0.421602875,-3.373607874,-3.132926941,0.229292577,D
-0.438894153,-3.510918617,-3.154798746,0.220907337,D
-0.444749892,-3.672762871,-3.172593832,0.211417025,D
-0.45058763,-3.875562191,-3.239016056,0.20079331,D
-0.449515909,-4.11327076,-3.296795607,0.188985547,D
-0.449408203,-4.399630547,-3.331140041,0.175805567,D
-0.472748458,-4.637944221,-3.361054182,0.161356824,D
-0.484169424,-4.883211136,-3.36222744,0.145769186,D
-0.465819925,-5.149215221,-3.351586103,0.12906744,D
-0.472173274,-5.42102766,-3.308481932,0.111426374,D
-0.490795255,-5.606541157,-3.260005713,0.093063086,D
-0.470598876,-5.744144917,-3.20198226,0.074126433,D
-0.523404241,-5.861544132,-3.120345592,0.05506281,D
-0.658010304,-5.940232277,-3.051567316,0.036524784,D
-0.722803414,-6.043217659,-3.038469076,0.01902433,D
-0.718717635,-6.17148447,-3.055149078,0.002535515,D
-0.702733457,-6.264059067,-3.090140581,-0.012745077,D
-0.717526376,-6.322273731,-3.034634352,-0.02718402,N
-0.754764199,-6.315143585,-3.047027111,-0.040102394,N
-0.775893569,-6.216015339,-3.037453651,-0.050704529,N
-0.810757518,-6.037267685,-3.064730167,-0.058632304,D
-0.880327046,-5.862771034,-3.167099714,-0.063606561,D
-0.950536132,-5.74262476,-3.428159475,-0.064827038,D
-0.975849986,-5.541549683,-3.759421825,-0.061475297,D
-1.01316762,-5.286280632,-4.118900776,-0.053206632,D
-1.066692114,-4.954698563,-4.509714127,-0.03930888,D
-1.084480643,-4.518904209,-4.865546227,-0.020013108,D
-1.062958241,-3.917773724,-5.185603619,0.003873603,D
-0.976063967,-3.267302036,-5.455326557,0.031425691,D
-0.865074754,-2.542132616,-5.754151344,0.063051791,D
-0.771391988,-1.817464352,-5.99839735,0.098679296,D
-0.703003407,-1.11359036,-6.187050819,0.137194811,D
-0.692470968,-0.501145482,-6.244002342,0.177103668,D
-0.737764657,0.074375853,-6.207455635,0.21711446,D
-0.762525082,0.603675425,-6.255889893,0.257036006,D
-0.752325416,1.12463069,-6.300560474,0.297800319,D
-0.793112755,1.621101618,-6.335454941,0.33961625,D
-0.862025082,2.106476784,-6.227744102,0.382196121,D
-0.914315462,2.627002716,-6.055774212,0.424519924,D
-0.960211396,3.04729557,-5.808750629,0.464616249,D
-0.993769407,3.362127781,-5.568013668,0.502298191,D
-0.974888444,3.712723732,-5.358880997,0.538509782,D
-0.906660676,4.061105728,-5.19802475,0.574115059,D
-0.899231374,4.463525772,-5.012863636,0.609533625,D
-0.969448566,4.835652351,-4.70473671,0.644282381,D
-1.073589325,5.192747116,-4.362244129,0.678315704,D
-1.142650485,5.58762598,-3.98419404,0.710807988,D
-1.160393,5.824166775,-3.592641115,0.74121609,D
-1.190530181,6.010321617,-3.227655888,0.769504433,D
-1.171974182,6.196884632,-2.821200609,0.795287109,D
-1.16648972,6.38060236,-2.420913219,0.8185537,D
-1.189534783,6.509856701,-2.072436333,0.839399316,D
-1.230511665,6.607255936,-1.70024395,0.857898005,D
-1.240463734,6.661566257,-1.384706497,0.873717857,D
-1.171973467,6.821126938,-1.101894855,0.886756885,D
-1.080473661,6.921041012,-0.753610611,0.896614435,D
-1.050798416,6.96301651,-0.421338707,0.903290362,D
-1.015210152,7.010873795,-0.140315533,0.907147576,D
-0.954262495,7.060839176,0.156166404,0.908511299,D
-0.922700405,7.099863529,0.376043409,0.907606923,D
-0.895806968,7.126000404,0.543320298,0.904417438,D
-0.871532559,7.117985249,0.740653872,0.898907985,D
-0.90594852,7.035561085,0.937473714,0.891087808,D
-0.948855877,6.936524868,1.146374822,0.881088439,D
-0.983724117,6.827064037,1.324339986,0.868980697,D
-1.027325869,6.6048522,1.413157463,0.855224861,D
-1.065018892,6.300693512,1.467258811,0.840306421,D
-1.059248209,5.87296772,1.562818646,0.824629836,D
-1.097211719,5.506581783,1.712855339,0.808474133,D
-1.150294065,5.16074276,1.803795457,0.791869172,D
-1.126110315,4.757192612,1.88098073,0.775185551,D
-1.09178555,4.382535934,1.943835258,0.758666167,D
-1.06551218,3.950066805,2.015133619,0.742394834,D
-1.019996524,3.594172955,2.126821756,0.726561735,D
-0.961550355,3.330422163,2.10994935,0.711144318,D
-0.870318472,3.127053022,2.022233009,0.696122513,D
-0.772102773,2.856552362,1.857627511,0.681723723,D
-0.718411505,2.5911057,1.84609282,0.668064121,D
-0.657184362,2.428885221,1.678778052,0.655215439,D
-0.534880579,2.318745136,1.479705334,0.643421306,D
-0.444096297,2.148936033,1.269760966,0.632557638,D
-0.348577172,1.908625603,0.961391091,0.623048008,N
-0.249707669,1.678363085,0.687720478,0.615061449,N
-0.221666932,1.388191938,0.452861071,0.608594807,N
-0.204987168,1.111885548,0.307545871,0.603753742,N
-0.16967383,0.869418681,0.150688872,0.600339421,N
-0.144831181,0.598754644,0.006882012,0.598282542,N
-0.135598391,0.355718851,-0.111138903,0.597512251,N
-0.128719866,0.183758259,-0.249550626,0.597786816,N
-0.129609674,-0.009238351,-0.341811299,0.598968399,N
-0.181364387,-0.280547082,-0.406307608,0.601038043,N
-0.251524568,-0.544669807,-0.429681897,0.604142017,D
-0.299976528,-0.803206027,-0.45858252,0.608225593,D
-0.347178966,-1.094784379,-0.466159999,0.613386288,D
-0.38338384,-1.339577675,-0.484166592,0.619587005,D
-0.388089716,-1.599493623,-0.560829103,0.626757815,D
-0.394760072,-1.844021082,-0.645754099,0.634924336,D
-0.396994501,-2.154852867,-0.762728155,0.644094618,D
-0.388509244,-2.411906719,-0.85974437,0.897859441,D
-0.386044323,-2.655611515,-0.97037077,0.903506342,D
-0.401515394,-2.89392972,-1.091594219,0.909077051,D
-0.402320057,-3.084490061,-1.190649629,0.914350481,D
-0.397455007,-3.293912172,-1.19316709,0.919270785,D
-0.406826973,-3.491360188,-1.168982863,0.923827906,D
-0.425752342,-3.620658398,-1.127278209,0.928140939,D
-0.454772443,-3.708038092,-1.034344554,0.932125841,D
-0.491306871,-3.851966858,-0.959969342,0.935546495,D
-0.489288449,-4.035889149,-0.906291962,0.938164164,D
-0.456334472,-4.178071499,-0.822612047,0.939902376,D
-0.415203214,-4.303959846,-0.740509748,0.940730039,D
-0.380488038,-4.407452106,-0.673237503,0.940638163,D
-0.366135359,-4.51270771,-0.593247592,0.939665723,D
-0.353602529,-4.598861694,-0.474565625,0.937797968,D
-0.334334731,-4.659493446,-0.348326981,0.93501385,D
-0.327260256,-4.69750452,-0.215743765,0.931264133,D
-0.328036308,-4.717952728,-0.085929312,0.926510213,D
-0.31832844,-4.783081055,-0.00926601,0.920758955,D
-0.275866449,-4.821621895,0.075988434,0.914040512,D
-0.225198805,-4.836902618,0.151280254,0.906387529,D
-0.200700402,-4.815948963,0.232703477,0.897842738,D
-0.188777536,-4.752274036,0.269310921,0.888530061,D
-0.186687231,-4.669948101,0.318835855,0.878529317,D
-0.199469358,-4.60437727,0.376284182,0.867828506,D
-0.191469371,-4.525949001,0.418585837,0.856471481,D
-0.145699978,-4.376241207,0.472860515,0.844592797,D
-0.109037638,-4.292673111,0.539256871,0.832314202,D
-0.110444576,-4.261711121,0.646158159,0.819373007,D
-0.119549334,-4.178471565,0.784977078,0.805734105,D
-0.113954753,-4.157463074,0.795140088,0.79173339,D
-0.079290122,-4.143258572,0.779064417,0.777416946,D
-0.030156374,-4.126392841,0.787733853,0.762748118,D
-0.113413185,-2.526783943,-0.536171198,-0.246751306,D
-0.138204485,-2.599580526,-0.521603405,-0.257907048,D
-0.162220895,-2.633346319,-0.488367707,-0.268955769,D
-0.155725181,-2.668371201,-0.471859097,-0.27974719,D
-0.136303276,-2.70002079,-0.483913124,-0.290355625,D
-0.118794531,-2.721004963,-0.539481163,-0.300726321,D
-0.093132794,-2.758445263,-0.651053488,-0.310919017,D
-0.075107485,-2.807305813,-0.787178397,-0.320988086,D
-0.066204011,-2.86294961,-0.981587827,-0.330985243,D
-0.084908575,-2.927849531,-1.193582535,-0.340991363,D
-0.125704885,-2.982198,-1.384635806,-0.350870685,D
-0.157628238,-2.991452932,-1.596040726,-0.360455662,D
-0.180819631,-2.939931154,-1.76580739,-0.369338362,D
-0.186434448,-2.888998985,-1.93754673,-0.37733356,D
-0.15746358,-2.793531656,-2.14633131,-0.384226657,D
-0.093281507,-2.749365807,-2.406355619,-0.38998487,D
-0.06278348,-2.73096633,-2.649322033,-0.394753598,D
-0.061734617,-2.74015975,-2.891461611,-0.398626643,D
-0.063069314,-2.782011747,-3.107471943,-0.4017153,D
-0.105842046,-2.841906786,-3.230675697,-0.403961564,D
-0.17143634,-2.94778204,-3.244650364,-0.405508176,D
-0.225670353,-3.02853322,-3.171792269,-0.406408488,D
-0.250017494,-3.156638622,-3.095030546,-0.406820548,D
-0.256425679,-3.290650129,-3.010333776,-0.407146542,D
-0.268282622,-3.416666746,-2.872544765,-0.407599822,D
-0.244499937,-3.589457035,-2.764313698,-0.408404496,D
-0.193596318,-3.695094109,-2.664159775,-0.409302407,D
-0.18490535,-4.045623779,-2.538785934,-0.410471192,D
-0.293275565,-4.482078075,-2.384538889,-0.412760183,D
-0.377064347,-4.842089653,-2.39240694,-0.41601991,D
-0.366771877,-5.198038101,-2.405088425,-0.419801588,D
-0.384804666,-5.480349064,-2.538536072,-0.424053618,D
-0.450052947,-5.569573402,-2.497086287,-0.428234914,D
-0.601551175,-5.795869827,-2.421286345,-0.432690584,D
-0.70246762,-5.899607182,-2.477511168,-0.437182659,D
-0.682158053,-6.103901386,-2.441725254,-0.441474069,D
-0.779235721,-6.247143269,-2.429069281,-0.445958519,D
-0.890763998,-6.277088165,-2.509865284,-0.449897879,D
-1.008028388,-6.334467411,-2.570784092,-0.453077097,D
-1.155879974,-6.165833473,-2.660502672,-0.455259796,N
-1.266444802,-5.910984516,-2.684042931,-0.45601468,N
-1.380515099,-5.697660923,-2.782922983,-0.455256759,D
-1.315523386,-5.356549263,-3.038063765,-0.452188286,D
-1.172739744,-5.095802784,-3.311994076,-0.44650505,D
-1.176226854,-4.793556213,-3.65866518,-0.437926462,D
-1.168885827,-4.427399635,-4.037371159,-0.42615206,D
-1.091183424,-4.028783321,-4.365698814,-0.411111186,D
-1.029603958,-3.634264946,-4.673575401,-0.392830979,D
-0.938536227,-3.247757196,-4.963150501,-0.371444413,D
-0.084162176,-2.204331398,-0.544876933,-0.345891996,D
-0.102264136,-2.260699511,-0.622667968,-0.35449168,D
-0.116481513,-2.303803444,-0.718171835,-0.363066267,D
-0.116047829,-2.332380772,-0.81969738,-0.371486721,D
-0.109291106,-2.36578083,-0.922021866,-0.379664751,D
-0.113567263,-2.362838268,-1.063819051,-0.387545658,D
-0.125158727,-2.3659513,-1.20743084,-0.394996744,D
-0.143682897,-2.385652304,-1.361035824,-0.402034633,D
-0.15633297,-2.433218479,-1.547543406,-0.408734091,D
-0.163676351,-2.458756685,-1.757732153,-0.415089055,D
-0.183658719,-2.4953444,-1.950730681,-0.42091827,D
-0.215196669,-2.535130262,-2.129681349,-0.426210668,D
-0.241711736,-2.52355361,-2.297250748,-0.430757999,D
-0.244147152,-2.489942074,-2.449244738,-0.434338273,D
-0.237496138,-2.458696127,-2.564619064,-0.436849884,D
-0.233969867,-2.400327444,-2.647444963,-0.438230779,D
-0.23417753,-2.374673128,-2.701792002,-0.438345593,D
-0.249598369,-2.438684702,-2.719244003,-0.437455512,D
-0.275429666,-2.539592743,-2.74784565,-0.436004809,D
-0.291359007,-2.645425558,-2.811563015,-0.43416268,D
-0.27719453,-2.796569586,-2.831793308,-0.432144726,D
-0.25587973,-2.908665419,-2.806468725,-0.429858532,D
-0.244629964,-3.069949389,-2.832690716,-0.427194746,D
-0.244519085,-3.250286579,-2.850008011,-0.424281233,D
-0.258560032,-3.530997992,-2.815688133,-0.421446039,D
-0.303634018,-3.846634626,-2.738282919,-0.419326575,D
-0.363921881,-4.094036579,-2.65880084,-0.417662901,D
-0.395926952,-4.473564625,-2.544698954,-0.416708646,D
-0.468693614,-4.706535816,-2.51846242,-0.416548449,D
-0.427496076,-4.913775444,-2.47210288,-0.416633121,D
-0.381470591,-5.198648453,-2.333610058,-0.417387025,D
-0.377658069,-5.395719051,-2.318625927,-0.418824439,D
-0.388088614,-5.586455822,-2.235051155,-0.420619091,D
-0.494385749,-5.806432724,-2.1057477,-0.423308485,D
-0.592716753,-5.923892021,-2.038983583,-0.426813181,D
-0.561747313,-5.947823048,-2.073432207,-0.430432578,D
-0.512987733,-5.984919071,-2.011691332,-0.434018004,D
-0.510077357,-5.984728336,-2.003524065,-0.437679368,D
-0.463810384,-5.956090927,-2.020430803,-0.441028179,N
-0.474034369,-5.938188076,-2.069314718,-0.443814187,N
-0.563322902,-5.905126572,-2.119540691,-0.445952802,N
-0.584052861,-5.864757061,-2.251909494,-0.447150139,D
-0.538151741,-5.831907749,-2.507708549,-0.44672248,D
-0.547993958,-5.754340172,-2.74604702,-0.444287998,D
-0.627194405,-5.640597343,-3.038147688,-0.439600549,D
-0.68348062,-5.424687386,-3.365712881,-0.432048966,D
-0.695579529,-5.168319702,-3.670075893,-0.421420474,D
-0.659174383,-4.803919792,-4.003107548,-0.40727502,D
-0.572532892,-4.310437202,-4.320462227,-0.389294813,D
-0.468218029,-3.779723167,-4.668766499,-0.367263414,D
-0.415777802,-3.207704544,-4.940310478,-0.341017544,D
-0.394316971,-2.617613316,-5.169052124,-0.310929702,D
-0.34355104,-1.990010738,-5.440992832,-0.27716355,D
-0.312206745,-1.364421487,-5.658643246,-0.239909299,D
-0.333765984,-0.816538572,-5.785935402,-0.199866176,D
-0.416995823,-0.276207447,-5.82618618,-0.157753078,D
-0.515720606,0.153936982,-5.76513195,-0.113760531,D
-0.596460998,0.633729994,-5.72134161,-0.06896061,D
-0.657974243,1.132768512,-5.575289249,-0.023250077,D
-0.748834848,1.584376693,-5.403313637,0.022895463,D
-0.852494776,2.042646885,-5.218529224,0.069127009,D
-0.928784311,2.482446432,-5.021143436,0.115108961,D
-0.994519591,2.900113583,-4.815781593,0.160435261,D
-1.050115585,3.28971386,-4.568472862,0.204736101,D
-1.09697485,3.616824865,-4.305957794,0.247785856,D
-1.13441658,3.923410177,-4.021665573,0.289977196,D
-1.137096763,4.246921539,-3.809595108,0.33181066,D
-1.118625998,4.498627186,-3.519443274,0.373379389,D
-1.13779366,4.731900215,-3.215607405,0.413746876,D
-1.162896156,4.968927383,-2.93584919,0.452694515,D
-1.159378409,5.146494389,-2.690462589,0.490455296,D
-1.152350187,5.319405079,-2.442535639,0.526877974,D
-1.122753263,5.409047604,-2.205548048,0.561796015,D
-1.093607903,5.520507813,-1.977726102,0.595290635,D
-1.059381962,5.679746628,-1.785802484,0.627407277,D
-1.023925424,5.772447109,-1.613674641,0.658073821,D
-1.002743602,5.799035072,-1.46903038,0.687415772,D
-0.978867769,5.867662907,-1.313302279,0.715404361,D
-0.939676166,5.908065796,-1.162213206,0.741744151,D
-0.912948132,5.874090195,-0.973588526,0.766312155,D
-0.915752292,5.919563293,-0.830027103,0.789140631,D
-0.874800563,5.949864388,-0.702314079,0.810302477,D
-0.837326646,5.970006943,-0.546371341,0.829715442,D
-0.817120433,6.015475273,-0.443411976,0.847575336,D
-0.79455477,5.963799,-0.319104165,0.863798865,D
-0.766704321,5.916507244,-0.183023274,0.878292295,D
-0.729052007,5.928786278,0.029526018,0.891053569,D
-0.717878819,5.877510071,0.274273872,0.901944692,D
-0.75370276,5.827805519,0.466578066,0.911011483,D
-0.77251482,5.768603802,0.676083922,0.918355494,D
-0.769625008,5.708163738,0.788087189,0.924103595,D
-0.765137434,5.575496674,0.8667171,0.928376461,D
-0.775411546,5.270876884,0.941973209,0.9309967,D
-0.838486314,4.978329659,1.074974775,0.931901238,D
-0.901291609,4.66203928,1.135088921,0.931461106,D
-0.920264482,4.270877838,1.145043015,0.929993137,D
-0.949269474,3.783289433,1.119136095,0.92780171,D
-1.006832004,3.27531147,1.135253549,0.925093951,D
-1.05831337,2.873290062,1.122048259,0.921914774,D
-1.059182525,2.562106371,1.057709694,0.918301114,D
-1.005794048,2.172801733,0.92566061,0.914340709,D
-0.924905717,1.925569177,0.860748947,0.910053367,D
-0.826343894,1.715947986,0.83787936,0.905922747,D
-0.707921982,1.597869873,0.842801988,0.902268281,D
-0.554773927,1.50826776,0.732192636,0.899292823,D
-0.392900616,1.34471035,0.504395306,0.896761633,D
-0.265456378,1.148124218,0.285176694,0.89447329,D
-0.158986002,0.880614877,0.041057132,0.89229964,D
-0.073183328,0.008981133,0.019413356,0.890244227,D
-0.090077221,0.181595504,-0.317857146,0.887671696,N
-0.050929874,0.00352112,-0.517214477,0.887938241,N
-0.033669829,-0.075715907,-0.645575643,0.888188973,N
-0.051209629,-0.396110415,-0.411464304,0.888201076,N
-0.05710575,-0.356820017,-0.301542342,0.888696997,N
-0.160129488,-0.398320585,-0.253869355,0.890200813,N
-0.217405587,-0.479177624,-0.237366766,0.892108012,D
-0.235368848,-0.809540629,-0.207512468,0.894029088,D
-0.238480389,-0.998545408,-0.264374375,0.895910291,D
-0.224250346,-1.223733306,-0.28368628,0.898026352,D
-0.214963824,-1.41885972,-0.345653147,0.900306059,D
-0.188309669,-1.667037487,-0.397213548,0.902537719,D
-0.194797844,-1.833477378,-0.444120318,0.90468435,D
-0.218707263,-1.946052432,-0.454116762,0.906833222,D
-0.250784993,-2.021146536,-0.465653956,0.909091043,D
-0.263576448,-2.127372503,-0.450132787,0.911349154,D
-0.248813987,-2.218068123,-0.435210228,0.913548381,D
-0.226813078,-2.297971249,-0.387491971,0.915684459,D
-0.223603249,-2.376814365,-0.345455527,0.917693644,D
-0.230542183,-2.452348232,-0.274663657,0.919512202,D
-0.227684915,-2.505978584,-0.210408822,0.921094609,D
-0.216974497,-2.559969902,-0.178218916,0.922402729,D
-0.191900313,-2.580067873,-0.158174589,0.923412895,D
-0.185112834,-2.59337616,-0.105420291,0.924119443,D
-0.20987612,-2.644754887,-0.036361281,0.924412627,D
-0.238337815,-2.696150064,0.019395459,0.924228412,D
-0.235589087,-2.760844946,0.09721569,0.923506635,D
-0.222519696,-2.810550928,0.203765571,0.922199849,D
-0.210781276,-2.890774012,0.284729749,0.920233642,D
-0.206019521,-2.952540636,0.382985234,0.917575942,D
-0.212362528,-3.011672258,0.489318758,0.91420922,D
-0.241662979,-3.074216366,0.580991149,0.910090309,D
-0.271763146,-3.179071903,0.665491223,0.905171988,D
-0.271246314,-3.289819479,0.720323324,0.899420299,D
-0.246434391,-3.412397861,0.731433392,0.892914561,D
-0.216993451,-3.457584381,0.805682838,0.885630223,D
-0.191992342,-3.482330322,0.852962673,0.877575464,D
-0.187061608,-3.449843645,0.901081979,0.86883726,D
-0.213156939,-3.414169312,0.974056482,0.859412029,D
-0.237782419,-3.430673838,1.018710971,0.849308818,D
-0.240376174,-3.488175154,1.046138525,0.838557389,D
-0.208271921,-3.477764845,1.074080467,0.827155797,D
-0.170456707,-3.449697495,1.105429769,0.815208798,D
-0.153381586,-3.452232599,1.13236773,0.802767687,D
-0.156265378,-3.457740068,1.198249459,0.789724262,D
-0.156556606,-3.474955082,1.225215077,0.776083102,D
-0.154281199,-3.455340624,1.271515965,0.761800381,D
-0.164597183,-3.451784134,1.299033642,0.746916401,D
-0.15712449,-3.407927036,1.347921252,0.731401771,D
-0.157174498,-3.388875008,1.458824635,0.715368044,D
-0.173896015,-3.339802504,1.497391462,0.699128238,D
-0.156007648,-3.293464661,1.49973011,0.682976965,D
-0.119242102,-3.231773138,1.498524189,0.666849156,D
-0.11924538,-3.127519131,1.559179544,0.650496906,D
-0.163210779,-3.064474106,1.68678093,0.633335315,D
-0.220492393,-3.089241743,1.855062604,0.614764296,D
-0.244043902,-3.154120922,1.953919053,0.595288462,D
-0.204259664,-3.121453047,1.940973639,0.575824295,D
-0.117398098,-3.060383558,1.874590397,0.557144488,D
-0.059668273,-2.96135211,1.812222362,0.539317691,D
-0.062187202,-2.848071575,1.803409338,0.521521142,D
-0.094107658,-2.771355152,1.85621655,0.502754047,D
-0.144933462,-2.690594435,1.93345201,0.482975974,D
-0.206994355,-2.639712095,1.988930225,0.462795011,D
-0.242008716,-2.636068583,2.002261639,0.442834131,D
-0.220357627,-2.602467775,1.974993825,0.423874349,D
-0.156936049,-2.581775427,1.927400112,0.405875365,D
-0.107664004,-2.5434165,1.925579906,0.388176464,D
-0.099608228,-2.498152018,1.939049363,0.370061863,D
-0.112745464,-2.443826199,1.982906222,0.351274825,D
-0.138271958,-2.379334927,2.016387701,0.332182955,D
-0.143789902,-2.318777323,1.964947701,0.313560786,D
-0.117866695,-2.230057716,1.869302511,0.295959545,D
-0.103478849,-2.126597881,1.801465392,0.279259392,D
-0.131983578,-2.053742409,1.792576194,0.262869249,D
-0.175790355,-1.36133194,-0.047412917,-0.269617604,D
-0.185274035,-1.586449742,-0.028305802,-0.275927324,D
-0.175134778,-1.813119411,-0.055369645,-0.283127808,D
-0.145690709,-2.016807556,-0.055577852,-0.291182802,D
-0.132995844,-2.181686878,-0.05359406,-0.29986223,D
-0.114727676,-2.323474646,-0.047518909,-0.309045627,D
-0.10332492,-2.40321207,-0.076283447,-0.318507195,D
-0.108631849,-2.448661804,-0.120010637,-0.328080344,D
-0.101225555,-2.483686686,-0.177194551,-0.33766144,D
-0.104750991,-2.523552895,-0.265089631,-0.347215051,D
-0.131559074,-2.583668947,-0.363328576,-0.3568083,D
-0.152595311,-2.645443439,-0.478797615,-0.366420299,D
-0.135626078,-2.709831953,-0.584986329,-0.375997911,D
-0.121413648,-2.775624275,-0.755523264,-0.385535631,D
-0.128064752,-2.848397732,-0.920813739,-0.395004278,D
-0.149839133,-2.930663347,-1.114898801,-0.404348004,D
-0.171610028,-2.991737127,-1.328647375,-0.413527516,D
-0.206731975,-3.024031878,-1.551787615,-0.422374419,D
-0.259380192,-3.058342457,-1.763168931,-0.430745834,D
-0.311938226,-3.082631826,-1.986577034,-0.438592389,D
-0.348767221,-3.077010393,-2.259817123,-0.445737495,D
-0.336231053,-3.049183607,-2.516654015,-0.451976282,D
-0.313004553,-3.033444166,-2.749008894,-0.457278563,D
-0.316871315,-2.957508326,-2.91430521,-0.461435357,D
-0.325073242,-2.930266857,-3.04177618,-0.464333543,D
-0.337481648,-2.910334587,-3.120718479,-0.466036909,D
-0.358046383,-2.94044733,-3.194555521,-0.466624483,D
-0.383382827,-3.021467924,-3.258881092,-0.466316455,D
-0.413247406,-3.190947056,-3.253521204,-0.465548858,D
-0.451473355,-3.366736412,-3.221903801,-0.464527411,D
-0.453915775,-3.594882965,-3.20911622,-0.46339998,D
-0.409155726,-3.852646589,-3.139655352,-0.46271876,D
-0.353918105,-4.019132137,-3.015100002,-0.462328452,D
-0.345753133,-4.296529293,-2.869965553,-0.462043936,D
-0.354150593,-4.594762802,-2.779275656,-0.462100338,D
-0.317538559,-4.869316578,-2.687789917,-0.462492425,D
-0.303252786,-5.163183212,-2.548744917,-0.463405207,D
-0.321208417,-5.443120003,-2.612599611,-0.464984168,D
-0.329801828,-5.578470707,-2.70428896,-0.466928624,D
-0.390177608,-5.708833218,-2.656756163,-0.469172883,D
-0.514674366,-5.935713291,-2.642458439,-0.472165983,D
-0.571667552,-6.026454926,-2.649169207,-0.475274912,D
-0.565110922,-6.091585636,-2.593138456,-0.478106976,D
-0.649062991,-6.126089096,-2.586833715,-0.480776272,D
-0.8016693,-6.149184704,-2.595723867,-0.483179251,D
-0.967084289,-6.21349287,-2.583719969,-0.485483586,N
-1.112596273,-6.193852425,-2.626232147,-0.487561857,N
-1.176696301,-6.077039719,-2.746128321,-0.488750876,D
-1.166733623,-5.897137165,-2.892340183,-0.4885532,D
-1.151362896,-5.636368752,-3.088430166,-0.486554246,D
-1.091879249,-5.342469692,-3.368892193,-0.482189192,D
-0.990471721,-4.98652029,-3.71211648,-0.474819137,D
-0.223961532,-2.006674051,-0.179850966,0.516777992,D
-0.186731637,-2.081542015,-0.18424651,0.518907866,D
-0.167128623,-2.111091375,-0.198183358,0.521595764,D
-0.149808079,-2.150848866,-0.23019205,0.524727445,D
-0.12980786,-2.190240383,-0.267202795,0.528078393,D
-0.121117353,-2.248796225,-0.340723783,0.531498915,D
-0.113935679,-2.300156355,-0.442944169,0.534833179,D
-0.124894172,-2.371433735,-0.556650758,0.538078132,D
-0.150562435,-2.460893869,-0.720623016,0.541169438,D
-0.152180165,-2.561744213,-0.913966775,0.54378238,D
-0.166776717,-2.68936348,-1.09780097,0.545673184,D
-0.19857192,-2.791942835,-1.27655375,0.54679687,D
-0.215164959,-2.863953829,-1.455232382,0.547196345,D
-0.230712503,-2.923839808,-1.630098939,0.546877409,D
-0.25434348,-2.989349842,-1.803995371,0.545720666,D
-0.287030727,-3.039983034,-1.970012069,0.543561623,D
-0.318423688,-3.040810585,-2.181384563,0.540572621,D
-0.317674905,-3.012817383,-2.359499693,0.536904114,D
-0.296103895,-2.957273722,-2.546370745,0.532683288,D
-0.274251074,-2.884092808,-2.729277372,0.527978804,D
-0.248466343,-2.778892994,-2.872737169,0.522876754,D
-0.250055194,-2.724842072,-2.976621628,0.517304752,D
-0.27183485,-2.697410107,-3.016653776,0.511041535,D
-0.287341595,-2.679959536,-3.121477127,0.50397699,D
-0.267736971,-2.681982279,-3.236343145,0.496157465,D
-0.235397518,-2.82572794,-3.292503595,0.487180564,D
-0.236251324,-3.068644762,-3.374795437,0.476605481,D
-0.221795455,-3.149418354,-3.417602301,0.464783881,D
-0.180664286,-3.273087263,-3.409765959,0.451758078,D
-0.162942946,-3.488667727,-3.32527566,0.436936519,D
-0.176117599,-3.686297178,-3.186524153,0.420034347,D
-0.20925048,-4.005999565,-3.048877001,0.400863519,D
-0.279604137,-4.200762749,-3.015368223,0.380312827,D
-0.300857276,-4.395482063,-2.956922531,0.359482741,D
-0.32772401,-4.597150326,-2.819977999,0.338541855,D
-0.360694975,-4.758617401,-2.715775728,0.317078014,D
-0.330313325,-4.977538586,-2.638029337,0.29444948,D
-0.313705802,-5.236038208,-2.592935324,0.270740227,D
-0.353549808,-5.545227051,-2.566651821,0.246375096,D
-0.411751032,-5.837358475,-2.615018129,0.222590572,D
-0.445029914,-6.035382748,-2.596115112,0.199995615,D
-0.519949555,-6.205135822,-2.474019051,0.178132144,D
-0.649509132,-6.221748352,-2.46466589,0.157235301,D
-0.784540236,-6.193196297,-2.38167572,0.137782068,D
-0.979390442,-6.300312042,-2.259536505,0.120266326,N
-1.12695992,-6.326882839,-2.381300688,0.106219743,N
-1.095152378,-6.192831993,-2.576275587,0.096372441,D
-1.083893418,-6.008105755,-2.773098707,0.090738647,D
-1.14015913,-5.718859196,-3.039025784,0.08990874,D
-1.11672771,-5.34965229,-3.332452059,0.094068836,D
-1.049610019,-4.897150993,-3.606641769,0.103534823,D
-0.972010911,-4.435520172,-3.935247183,0.118561804,D
-0.850328505,-3.828144312,-4.328911781,0.138949376,D
-0.710113227,-3.156802416,-4.701570988,0.16356166,D
-0.603376806,-2.490066767,-5.063220978,0.191539286,D
-0.574581146,-1.86427474,-5.385607243,0.222224447,D
-0.619467139,-1.222893596,-5.616439819,0.25504169,D
-0.648464262,-0.589719057,-5.753665447,0.289261237,D
-0.650972784,-0.002712275,-5.900576115,0.325102928,D
-0.687895715,0.600648701,-5.935375214,0.362100033,D
-0.752875626,1.235189676,-5.935246468,0.399050617,D
-0.798302293,1.825437188,-5.839067936,0.435323197,D
-0.837827682,2.34821701,-5.737553596,0.470511418,D
-0.891607225,2.824727774,-5.6231637,0.504879675,D
-0.969019115,3.30947423,-5.426107407,0.538257395,D
-1.045444965,3.760636806,-5.138188362,0.569805555,D
-1.131674647,4.130230904,-4.820409775,0.599050697,D
-1.188677669,4.471188068,-4.521173,0.626175092,D
-1.206349373,4.799093723,-4.290912628,0.652132133,D
-1.204188228,5.162195683,-4.058515549,0.676979314,D
-1.204332113,5.437770367,-3.660292387,0.699850557,D
-1.267197132,5.615314007,-3.232572794,0.72030477,D
-1.303981543,5.770186424,-2.926226854,0.738469058,D
-1.219628453,5.942344189,-2.680348158,0.754524388,D
-1.157011271,6.080996513,-2.472318172,0.768643372,D
-1.175111175,6.11973381,-2.206393957,0.781162488,D
-1.203315973,6.168585777,-1.918832898,0.792209708,D
-1.18111217,6.156386852,-1.697941184,0.801927301,D
-1.132846355,6.173918724,-1.499605775,0.810462678,D
-1.081094265,6.261670113,-1.251521349,0.817022689,D
-1.051934958,6.22155571,-0.960547328,0.821251026,D
-1.060782671,6.188653469,-0.658777893,0.823381129,D
-0.999272883,6.211172104,-0.493053913,0.823446361,D
-0.907408237,6.154183388,-0.299023062,0.821692087,D
-0.866437793,6.101709843,-0.129015371,0.818565767,D
-0.829864502,6.100376129,0.040183723,0.81390323,D
-0.798488677,6.034008503,0.275309414,0.8078709,D
-0.802821517,5.937524796,0.554681063,0.800412427,D
-0.796707273,5.817837715,0.818446934,0.791626814,D
-0.779576778,5.766915321,1.107434273,0.781332731,D
-0.725460172,5.656977654,1.330937386,0.769556336,D
-0.715558767,5.581726551,1.487044573,0.756574481,D
-0.711407542,5.450202465,1.555543184,0.742580825,D
-0.718383908,5.202561378,1.613433003,0.72806966,D
-0.760352194,4.83757925,1.729715228,0.713435341,D
-0.843612373,4.507542133,1.863751888,0.698840299,D
-0.900328338,4.177433491,2.004725456,0.684131468,D
-0.949042857,3.838135242,2.043976307,0.669581903,D
-1.007101655,3.576140165,2.011408329,0.65530354,D
-0.998054862,3.191235065,1.878007531,0.641718457,D
-0.946867049,2.89761591,1.681163192,0.62941507,D
-0.857810318,2.603075743,1.529236555,0.617999664,D
-0.738085926,2.288126469,1.316410899,0.607778484,D
-0.624263167,2.189888239,1.121177912,0.598541099,D
-0.527161479,1.975049853,0.996696711,0.589900992,D
-0.482349992,1.805896759,0.995554745,0.581996225,D
-0.436471283,1.867409706,0.927359164,0.57401715,D
-0.323267639,1.760878205,0.768772125,0.56619404,D
-0.252631903,1.678343654,0.578195512,0.558990017,D
-0.232703149,1.479997754,0.399360001,0.55260735,D
-0.231096923,1.219093561,0.241831094,0.547391369,D
-0.245471656,0.997873008,0.103980228,0.543245969,N
-0.248230219,0.758687377,-0.01189631,0.540153331,N
-0.222671568,0.53390348,-0.177418649,0.538164852,N
-0.17958945,0.296818793,-0.290118307,0.537310329,N
-0.170712531,0.085266322,-0.341973662,0.537404172,N
-0.154100358,-0.095092267,-0.414404452,0.538338264,N
-0.101005554,-0.207274213,-0.466999024,0.539899832,N
-0.087142587,-0.364436388,-0.475132316,0.54200649,N
-0.1160357,-0.529350758,-0.454728425,0.54462439,N
-0.147365928,-0.727150679,-0.442264825,0.547823964,N
-0.182652593,-0.911118925,-0.465851873,0.551654769,D
-0.227356613,-1.10488975,-0.511988521,0.55618605,D
-0.272400439,-1.36770618,-0.541966259,0.561536597,D
-0.276926875,-1.598621726,-0.571571827,0.567763778,D
-0.24515295,-1.856568575,-0.607478142,0.574792045,D
-0.221904576,-2.088522673,-0.657718658,0.582691163,D
-0.223135889,-2.324035883,-0.724776566,0.591382509,D
-0.227648258,-2.542621374,-0.728795826,0.600815849,D
-0.256622136,-2.744047642,-0.751033723,0.610799656,D
-0.271764815,-2.933454037,-0.750482678,0.621290043,D
-0.285861194,-3.138959169,-0.717475176,0.632141668,D
-0.305683374,-3.337486029,-0.660053432,0.643319697,D
-0.302547812,-3.510075331,-0.617427588,0.654718211,D
-0.272698522,-3.694098473,-0.581403255,0.666343292,D
-0.246791303,-3.842900753,-0.560225725,0.678164347,D
-0.242701948,-3.960284233,-0.531609237,0.937100276,D
-0.241084397,-4.069586277,-0.517095208,0.938910541,D
-0.226822972,-4.156843662,-0.510833561,0.9401991,D
-0.208489835,-4.194139957,-0.489077151,0.940937139,D
-0.212086916,-4.210722446,-0.466768116,0.941108952,D
-0.225498199,-4.255959511,-0.450400501,0.940695044,D
-0.205726027,-4.259121418,-0.444842488,0.939713767,D
-0.159442961,-4.247760773,-0.471365422,0.938216472,D
-0.129279733,-4.208930969,-0.503881812,0.936248635,D
-0.125183702,-4.198645592,-0.510786176,0.93378592,D
-0.15591079,-4.207053661,-0.477725416,0.930737853,D
-0.190886557,-4.210977554,-0.442495584,0.927033631,D
-0.186788082,-4.229584217,-0.420418501,0.922669075,D
-0.134404123,-4.215601921,-0.391713679,0.917626309,D
-0.080494821,-4.166946411,-0.350723624,0.911953794,D
-0.06784904,-4.15349102,-0.261017889,0.90560564,D
-0.104403704,-4.19020462,-0.146702752,0.898468988,D
-0.134937137,-4.260322571,-0.018218599,0.890431511,D
-0.139580011,-4.300857067,0.147273436,0.881395888,D
-0.103797227,-4.357183456,0.288459033,0.871453317,D
-0.051434577,-4.360216141,0.347839266,0.860939899,D
-0.018039167,-4.286568642,0.449960321,0.849951143,D
-0.029376507,-4.220942497,0.552241147,0.838343091,D
-0.079627603,-4.127369404,0.736663461,0.825812538,D
-0.12942189,-4.046899796,0.918182671,0.812276416,D
-0.143900454,-3.917897701,0.984223068,0.798209228,D
-0.096110687,-3.79532671,1.009191036,0.783996182,D
-0.023022816,-3.677198648,1.017307878,0.769835031,D
0.012374997,-3.54755187,0.998001754,0.755683576,D
-0.004327849,-3.446598053,1.038467169,0.741080248,D
-0.11578232,-1.729867578,0.227684006,-0.037939393,D
-0.148863286,-1.831024051,0.244292006,-0.042432607,D
-0.159573048,-1.924835205,0.235430554,-0.046951354,D
-0.124698251,-1.996422887,0.229968935,-0.051475635,D
-0.092662901,-2.074803829,0.194962278,-0.055990975,D
-0.100388855,-2.155633688,0.129401371,-0.060644901,D
-0.099507779,-2.21051693,0.021514697,-0.065494352,D
-0.079312474,-2.289716005,-0.103293017,-0.07062993,D
-0.068829209,-2.371500015,-0.236145809,-0.076105824,D
-0.081101894,-2.423791885,-0.396655083,-0.081862687,D
-0.080884904,-2.49169755,-0.562208533,-0.087790133,D
-0.077856869,-2.541537762,-0.743186057,-0.093955118,D
-0.078202307,-2.578219652,-0.968931854,-0.100307664,D
-0.071582913,-2.677365065,-1.217860222,-0.106932544,D
-0.086224914,-2.749663353,-1.489275932,-0.114034437,D
-0.123165727,-2.78058362,-1.777262449,-0.12141386,D
-0.158193022,-2.809868574,-2.037791252,-0.128888075,D
-0.180799395,-2.763491631,-2.302741766,-0.136266817,D
-0.207746178,-2.707762718,-2.51963377,-0.143258294,D
-0.250287592,-2.600404739,-2.710632324,-0.149596314,D
-0.26156193,-2.504298925,-2.895093203,-0.155102483,D
-0.249640763,-2.430874825,-3.095471144,-0.159794582,D
-0.248404652,-2.406020164,-3.280475378,-0.163884904,D
-0.252144665,-2.38677597,-3.440003157,-0.167523845,D
-0.230186909,-2.370209217,-3.580681324,-0.170707732,D
-0.226571679,-2.407055855,-3.639646053,-0.173572983,D
-0.232506067,-2.466638565,-3.65819788,-0.176367547,D
-0.235273138,-2.501748562,-3.63296628,-0.179041529,D
-0.246160239,-2.570931673,-3.546378613,-0.181596443,D
-0.266045183,-2.697919846,-3.410093546,-0.184329192,D
-0.288986892,-2.888106346,-3.40454483,-0.187635596,D
-0.310461134,-3.084280491,-3.331939697,-0.191602089,D
-0.338653147,-3.388780594,-3.263635874,-0.196611629,D
-0.342139184,-3.609333038,-3.236859798,-0.202662561,D
-0.311215281,-3.83935523,-3.159673214,-0.209461101,D
-0.293119013,-4.041646957,-3.086340189,-0.217077936,D
-0.28361401,-4.21600008,-3.067088842,-0.225161707,D
-0.29378581,-4.520125866,-3.00165391,-0.233915179,D
-0.356254876,-4.735405922,-2.977349043,-0.243384538,D
-0.387422234,-4.810888767,-2.892433405,-0.252968324,D
-0.417621613,-5.020411015,-2.792682886,-0.262948165,D
-0.487227976,-5.174838066,-2.674461126,-0.27350283,D
-0.549409688,-5.257452011,-2.587967634,-0.284282429,D
-0.621029079,-5.40381813,-2.476019382,-0.295184682,D
-0.722870708,-5.492030621,-2.464321613,-0.305902518,D
-0.766156137,-5.490709305,-2.458625793,-0.315856385,D
-0.253658116,-2.314613581,-0.748871326,-0.096193812,D
-0.261305571,-2.409286022,-0.851513028,-0.100202429,D
-0.264420509,-2.503785849,-0.947071016,-0.104231786,D
-0.272470474,-2.590533018,-1.036399603,-0.10827168,D
-0.295303881,-2.686923742,-1.140645385,-0.11232114,D
-0.343923271,-2.761287212,-1.238211036,-0.116337025,D
-0.366017401,-2.849877834,-1.378805876,-0.120324099,D
-0.372121632,-2.950218916,-1.530341983,-0.124459479,D
-0.40641588,-3.037115335,-1.705171227,-0.128819879,D
-0.443629861,-3.105606556,-1.867685556,-0.133342998,D
-0.458411217,-3.150043249,-2.028788567,-0.137899619,D
-0.474106133,-3.20937252,-2.158074379,-0.142473362,D
-0.494107604,-3.21176219,-2.293116331,-0.146967452,D
-0.491971314,-3.193733692,-2.422928095,-0.15112776,D
-0.464788556,-3.135326147,-2.563978672,-0.154746088,D
-0.424352765,-3.123209953,-2.690065622,-0.157772899,D
-0.399713159,-3.186902523,-2.85742569,-0.160552178,D
-0.385900289,-3.278969526,-3.033814192,-0.163341998,D
-0.384037614,-3.39247036,-3.131465197,-0.166056603,D
-0.405609637,-3.480729103,-3.241343737,-0.168904572,D
-0.432417244,-3.50203681,-3.294595718,-0.171580989,D
-0.44046852,-3.591889381,-3.283745527,-0.173997122,D
-0.427255571,-3.698249102,-3.285610914,-0.176510259,D
-0.402313411,-3.831402302,-3.32797575,-0.179333978,D
-0.397428036,-4.01239109,-3.333351612,-0.182847799,D
-0.434839725,-4.292459011,-3.315639019,-0.187298781,D
-0.475812167,-4.567994595,-3.284876347,-0.192978755,D
-0.469483107,-4.765739918,-3.234938622,-0.199466568,D
-0.441463649,-5.046044827,-3.08107543,-0.206677064,D
-0.462096244,-5.341546059,-2.971861839,-0.215169126,D
-0.432794988,-5.456370831,-2.890400887,-0.22448381,D
-0.346378863,-5.587647438,-2.793471336,-0.234274297,D
-0.32846117,-5.653262138,-2.764336348,-0.244417308,D
-0.36209926,-5.655395031,-2.692275286,-0.254554018,D
-0.411925524,-5.682880402,-2.615230799,-0.264656058,D
-0.426222384,-5.656517982,-2.540767431,-0.274637537,D
-0.400415301,-5.723029613,-2.508544207,-0.284494861,D
-0.431341827,-5.753866673,-2.482670307,-0.294135962,D
-0.503706276,-5.774740219,-2.455196381,-0.303358976,D
-0.580134332,-5.862319946,-2.45561409,-0.311987177,N
-0.630715787,-5.85898447,-2.466555357,-0.319790999,N
-0.679213583,-5.733798504,-2.510006905,-0.326516316,N
-0.759405255,-5.614817142,-2.579332829,-0.331862272,D
-0.887306213,-5.462622166,-2.653110266,-0.335581496,D
-0.977933228,-5.297307968,-2.818060875,-0.337006508,D
-0.977487564,-5.094052792,-3.099542141,-0.335170287,D
-0.933167815,-4.773825645,-3.422649145,-0.329267309,D
-0.85894537,-4.302217007,-3.718987465,-0.318962035,D
-0.738725722,-3.725707293,-4.020268917,-0.304102044,D
-0.594352365,-3.052869558,-4.323394775,-0.284681068,D
-0.468104243,-2.33889389,-4.639461517,-0.260417544,D
-0.390320897,-1.643118024,-4.830375671,-0.23203706,D
-0.34781307,-0.992311776,-5.031756401,-0.200576391,D
-0.317315578,-0.430907279,-5.233266354,-0.166260698,D
-0.334361613,0.023579516,-5.375950813,-0.12916066,D
-0.432866871,0.400497764,-5.424161911,-0.089277446,D
-0.559035957,0.772987187,-5.368350983,-0.047178053,D
-0.642210662,1.196611881,-5.295576572,-0.003727418,D
-0.700868845,1.586363077,-5.402909756,0.041523145,D
-0.786096275,1.942597151,-5.103335381,0.087062901,D
-0.885181487,2.381125927,-4.82649231,0.13187857,D
-0.873536825,2.833263159,-4.521959305,0.175757781,D
-0.878432155,3.186168671,-4.248849869,0.218659562,D
-0.929631293,3.490503073,-4.056386948,0.261473258,D
-0.962443352,3.86365509,-3.956357479,0.30502189,D
-0.994515717,4.221189976,-3.697132349,0.34885293,D
-1.069708705,4.505971432,-3.329235315,0.391360528,D
-1.177632213,4.76647234,-2.988426685,0.431621899,D
-1.20366776,5.001913071,-2.684575081,0.469573803,D
-1.16485548,5.143146038,-2.435037851,0.505531908,D
-1.131974339,5.215842247,-2.24073267,0.540021827,D
-1.093476892,5.245585442,-2.156308174,0.574618458,D
-1.034262419,5.512678146,-1.957737327,0.609183456,D
-1.068977714,5.51685524,-1.775941372,0.642614492,D
-1.219848633,5.522922993,-1.47871232,0.674113074,D
-1.228305817,5.546024323,-1.263611197,0.703827927,D
-1.138753295,5.5712924,-0.970157266,0.731284147,D
-1.098008275,5.583825111,-0.730695665,0.756318391,D
-1.058185935,5.621416092,-0.568255961,0.779611987,D
-0.993718922,5.583210945,-0.44513616,0.801699141,D
-0.94305563,5.535689831,-0.304989219,0.822481712,D
-0.885979772,5.597226143,-0.13097401,0.841904586,D
-0.889358699,5.578253746,0.123127237,0.859702674,D
-0.959488451,5.515719891,0.320772141,0.875680093,D
-0.949604988,5.477596283,0.536055982,0.889914497,D
-0.873540401,5.477190971,0.688146174,0.902458562,D
-0.8005656,5.448359489,0.78583765,0.913539189,D
-0.735739946,5.422958374,0.848772943,0.923320123,D
-0.685021758,5.35716486,0.880594969,0.931818392,D
-0.642075956,5.319326401,0.872634292,0.939072758,D
-0.592402339,5.28848362,0.901224196,0.945164692,D
-0.600760639,5.148350239,1.013102293,0.949999072,D
-0.653563499,4.973423004,1.095948339,0.953578924,D
-0.650334001,4.736693859,1.162190199,0.956002687,D
-0.61639905,4.576437473,1.259760857,0.957318539,D
-0.555467844,4.400299072,1.196412802,0.957755189,D
-0.517194867,4.146882534,1.032152772,0.957521954,D
-0.525284052,3.8119452,1.016920328,0.956595989,D
-0.566088438,3.48398447,1.104232192,0.954797405,D
-0.657617331,3.198011398,1.238362312,0.952236889,D
-0.745249093,2.928878546,1.382797718,0.949085978,D
-0.783362031,2.815198183,1.41745317,0.945538489,D
-0.710128248,2.665682077,1.222239256,0.941755829,D
-0.60884726,2.45895505,0.962475061,0.937704093,D
-0.527936637,2.340755224,0.783714116,0.933392533,D
-0.452385128,2.124981165,0.624369442,0.929084079,D
-0.408638716,1.981444955,0.486352652,0.924761161,D
-0.375878394,1.873269439,0.354800195,0.920699324,D
-0.319449723,1.555492282,0.273523688,0.917036109,D
-0.308969259,1.379809141,0.10660179,0.913657568,D
-0.266520858,1.137559533,0.044206053,0.910737453,D
-0.255379856,0.989001274,-0.094504692,0.908305615,D
-0.232378423,0.830686152,-0.242565632,0.906462354,D
-0.200786054,0.644657195,-0.344270945,0.904930191,D
-0.20078969,0.449592352,-0.379541337,0.90375773,N
-0.195089638,0.253189027,-0.391783088,0.903054769,N
-0.177659392,0.083227403,-0.402395666,0.902731851,N
-0.142485976,-0.099325895,-0.436214089,0.902707037,N
-0.126779497,-0.256960779,-0.445112675,0.903040836,N
-0.135160983,-0.421692222,-0.419744462,0.903791755,N
-0.143678665,-0.587029219,-0.395740062,0.90500852,N
-0.153352857,-0.71972388,-0.449214488,0.90664892,N
-0.154452503,-0.89263469,-0.493990272,0.908704293,N
-0.162071526,-1.073300362,-0.544546127,0.910914479,N
-0.181253254,-1.287435889,-0.609171391,0.913243554,N
-0.197961628,-1.480691671,-0.63158375,0.915734068,N
-0.234000981,-1.689697504,-0.66180414,0.918413615,D
-0.262823164,-1.901193619,-0.665578127,0.921300883,D
-0.268568397,-2.123966217,-0.686782479,0.924331696,D
-0.26654017,-2.3368361,-0.697356284,0.927411199,D
-0.263133407,-2.523761034,-0.725856364,0.930420244,D
-0.275411367,-2.708878994,-0.779886305,0.933320782,D
-0.276191056,-2.887210608,-0.840995669,0.936072522,D
-0.277179658,-3.039803743,-0.897187531,0.938580152,D
-0.297699213,-3.178684473,-0.916682839,0.940826862,D
-0.337853968,-3.341634035,-0.932830632,0.942736276,D
-0.360435724,-3.473878145,-0.94917357,0.944237416,D
-0.353410304,-3.602342129,-0.949530184,0.945392171,D
-0.350263953,-3.697004318,-0.932619333,0.946163946,D
-0.356680572,-3.750854254,-0.901196718,0.946495858,D
-0.359663725,-3.821109772,-0.87868613,0.946296749,D
-0.337259769,-3.858268499,-0.869450271,0.945503381,D
-0.29723841,-3.90515542,-0.855480433,0.944090827,D
-0.260090709,-3.961120605,-0.832900822,0.942024429,D
-0.227001309,-4.004222393,-0.816083491,0.939297325,D
-0.193528473,-4.034723759,-0.819296598,0.935914806,D
-0.160124153,-4.032144547,-0.799947679,0.93182459,D
-0.146178514,-4.006350994,-0.749752939,0.926973109,D
-0.151755482,-3.981940269,-0.651318252,0.921263151,D
-0.153662682,-3.933954716,-0.583929896,0.914676637,D
-0.140025377,-3.924926996,-0.519784868,0.907312814,D
-0.117314488,-3.926557064,-0.467927009,0.899331074,D
-0.079983264,-3.911279202,-0.401245177,0.890760623,D
-0.014021128,-3.874799967,-0.316971064,0.881519106,D
0.016598254,-3.872540474,-0.215458006,0.871373485,D
0.001635939,-3.797498941,-0.06560044,0.860175221,D
-0.020456344,-3.737121344,0.069784544,0.848011143,D
-0.013615519,-3.720584393,0.184865326,0.834960364,D
0.010628879,-3.670657873,0.281160653,0.821347482,D
0.031728536,-3.593723297,0.409049362,0.807414833,D
0.011224821,-3.518878222,0.528116763,0.793153793,D
-0.020213023,-3.437096119,0.646549642,0.778596249,D
-0.065522246,-3.375226974,0.774135232,0.763546205,D
-0.094729535,-3.321018457,0.879907429,0.747811736,D
-0.086464435,-3.244096756,1.026255369,0.731181825,D
-0.088120326,-3.171656132,1.099537253,0.71409213,D
-0.255588263,-1.978895307,-1.074481606,0.743465814,D
-0.268940538,-2.146103144,-1.077767134,0.752392307,D
-0.281198561,-2.252625942,-1.0711689,0.761621532,D
-0.292064905,-2.329904318,-1.045770884,0.771005395,D
-0.314503372,-2.421784401,-1.022133708,0.780454427,D
-0.342051595,-2.521209478,-0.981915355,0.789917569,D
-0.356885165,-2.660921574,-0.927343607,0.799391968,D
-0.365430862,-2.798612118,-0.8430897,0.808849591,D
-0.364568233,-2.927268744,-0.778198481,0.818221211,D
-0.349096715,-3.045574903,-0.721544027,0.827477042,D
-0.329152048,-3.135763168,-0.64980787,0.836481716,D
-0.322900116,-3.274970055,-0.590997279,0.845224175,D
-0.30753836,-3.299668074,-0.578718364,0.853616347,D
-0.293534309,-3.42410779,-0.513335645,0.861666357,D
-0.296663284,-3.525704861,-0.411754727,0.86937889,D
-0.296679378,-3.529386044,-0.290403783,0.876501385,D
-0.292051524,-3.515269041,-0.176075935,0.882829169,D
-0.285655141,-3.494968653,-0.106449977,0.88833166,D
-0.268412918,-3.506789923,-0.063698202,0.893086358,D
-0.246116042,-3.543753147,-0.046298172,0.897246832,D
-0.213299572,-3.56083703,-0.012561194,0.900834268,D
-0.152700782,0.342524767,-0.028628098,0.375295366,N
-0.17492491,0.266945302,0.007334962,0.376196733,N
-0.167410001,0.252513647,-0.008903449,0.377338045,N
-0.144511729,0.123926632,-0.015073461,0.378795325,N
-0.152496383,-0.029724985,-0.018200759,0.380367781,N
-0.181691512,-0.165348858,-0.065800771,0.381959424,N
-0.217166588,-0.320386648,-0.082031667,0.383522477,D
-0.245819643,-0.526235938,-0.070713237,0.385149069,D
-0.246536195,-0.752337754,-0.050132539,0.386900373,D
-0.224792346,-0.99736166,-0.055255663,0.388671073,D
-0.210662022,-1.273141623,-0.051229972,0.390266412,D
-0.219054863,-1.548388362,-0.047796626,0.391728254,D
-0.228443742,-1.818685412,-0.007179319,0.393412563,D
-0.229746729,-2.111565113,0.009207644,0.395166496,D
-0.250915796,-2.443336964,0.001135922,0.396429596,D
-0.291232735,-2.732457161,-0.005316918,0.396970563,D
-0.350015461,-3.016154051,0.004577739,0.396936158,D
-0.39430967,-3.204784393,-0.012538664,0.396511332,D
-0.371756673,-3.370284081,-0.025954604,0.396052686,D
-0.331599712,-3.510949612,-0.066094294,0.395388535,D
